Level,Time,InternalResistance,StartingInternalResistance,Voltage,Current,Temp,AccelX,AccelY,AccelCombined,Speed,Distance
1,0,0.5348209449266379,0.6,6.235482674651066,0.22348680838508092,25.00044697361677,0.04231610336117632,-0.00977277879876411,0.0434299413898215,0.02364052345967664,0.02364052345967664
1,1,0.6151921667820012,0.6,6.236208587629078,0.18621172555841692,25.00081939706789,0.014577267540897009,0.014542735069629751,0.02059096579241315,0.03677735528896487,0.06041787874864151
1,2,0.5579326191234828,0.6,6.241567242875428,0.19551670296580043,25.001210430473822,0.024873432454149507,-0.0020515826376580086,0.024957897214514642,0.046709997011538315,0.10712787576017982
1,3,0.9306105119464331,0.6,6.204406711416601,0.15755582044452843,25.001525542114713,0.013104039303950241,-0.00742165020406442,0.015059772170619387,0.0511696743268935,0.1582975500870733
1,4,0.5949539704369139,0.6,6.177925518258757,0.28831608681211873,25.002102174288336,0.0389083709507713,0.01469358769900285,0.04159041776071878,0.07475025313408022,0.23304780322115354
1,5,0.6657267491406761,0.6,6.207693345488319,0.2075848992651319,25.002517344086865,-0.0034046725497003856,0.0015634896910398006,0.0037465043953892616,0.07482470207764136,0.3078725052987949
1,6,0.6228470461821006,0.6,6.162589429255303,0.2994400573275624,25.00311622420152,0.0003349069488421449,-0.014200179371789752,0.014204128162452841,0.08564513867715443,0.39351764397594935
1,7,0.6275536083855572,0.6,6.148294496816462,0.31918743258084137,25.00375459906668,-0.03215516937446483,0.007774903558319101,0.03308177810882728,0.06601792290318886,0.4595355668791382
1,8,0.6824175683553386,0.6,6.19528865727625,0.22800335249979353,25.004210605771682,-0.021848822141587135,-0.011806321841224121,0.024834658531843638,0.04927715213729046,0.5088127190164287
1,9,0.5948457440862372,0.6,6.253737836924435,0.16265417920538008,25.00453591413009,-0.005552758433925231,-0.003627411659871381,0.006632589356782058,0.05006761464017487,0.5588803336566035
1,10,0.6842927001037609,0.6,6.2376541160341885,0.1601382638748699,25.00485619065784,-0.003957104519239469,-0.004017809362082619,0.005639279053764245,0.04433624869839787,0.6032165823550014
1,11,0.6949633103852233,0.6,6.216573052196848,0.1921349675258119,25.00524046059289,-0.007444702717724864,0.0012898291075741067,0.007555611006533184,0.02960064035889764,0.6328172227138991
1,12,0.5497826509520649,0.6,6.246721414437036,0.18554236397752494,25.005611545320846,0.005725971317724425,-0.005788496647644155,0.008142078418388661,0.04403458316844088,0.67685180588234
1,13,0.7711167182580786,0.6,6.240447348726834,0.1437494240958301,25.005899044169038,0.0031376407591867835,-0.015362436862772237,0.015679580858440494,0.042515599530323064,0.719367405412663
1,14,0.5167274115712986,0.6,6.1999561615377585,0.2893657164757236,25.00647777560199,0.005923435769818266,0.010544517269311366,0.012094376203920901,0.059146561515246755,0.7785139669279098
1,15,0.5894052941403579,0.6,6.23141671878039,0.2045813013019115,25.006886938204595,-0.00038276164951245263,0.007065731681919481,0.007076091483383903,0.05520013589399028,0.8337141028219001
1,16,0.5913421600336519,0.6,6.232410689059615,0.2002125879907615,25.007287363380577,0.019416493588371723,-0.013477590611424464,0.02363568640755832,0.055785122511799456,0.8894992253336995
1,17,0.727156954252963,0.6,6.195852572360794,0.21780826589487098,25.007722979912366,-0.016419552043634756,-0.007474548114407578,0.018040802610422412,0.04350176027576218,0.9330009856094617
1,18,0.4896392897248585,0.6,6.199690063584048,0.3127685260408063,25.008348516964446,0.012266987386680602,0.019100649530990336,0.02270052404793119,0.06438100451298981,0.9973819901224514
1,19,0.5056573572479237,0.6,6.246445715700867,0.20416553942434587,25.008756848043294,0.003022659542648018,0.009222066715665268,0.009704791868914155,0.06126287035217702,1.0586448604746284
1,20,0.5793738318463157,0.6,6.2503626617878965,0.17600350282704033,25.009108855048947,-0.0033077103209750622,-0.0014963454032767077,0.003630426577331138,0.06490083862851562,1.123545699103144
1,21,0.5459457439993699,0.6,6.224658809160156,0.23131180996682188,25.00957147866888,-0.0125407801245211,0.005392491912918173,0.013651012239481414,0.06005921924844768,1.1836049183515918
1,22,0.6733440997559734,0.6,6.222681401278439,0.191002795256638,25.009953484259395,-0.0009833403652691197,-0.0020829875557799487,0.0023034312300352555,0.053309970717029156,1.236914889068621
1,23,0.7828143467558325,0.6,6.219877527159582,0.167162201643843,25.01028780866268,0.006295805008638827,0.006350314368921064,0.008942239836356832,0.057939040771942694,1.2948539298405637
1,24,0.6628836712014322,0.6,6.119925269300831,0.3530304769838097,25.010993869616648,0.01087846956632994,-0.0046158460481470895,0.01181723888417941,0.08197658444338785,1.3768305142839514
1,25,0.6497247220202921,0.6,6.180988755471519,0.2568602468125183,25.011507590110273,-0.00386459974183942,-0.006634782863621074,0.0076782468579764465,0.07909650994580275,1.4559270242297542
1,26,0.6866577406633201,0.6,6.175795818565939,0.2520913473097306,25.012011772804893,0.0043763837195617454,0.019295320538169857,0.019785401919889437,0.08845321817228755,1.5443802424020416
1,27,0.6975015520629416,0.6,6.1603714906615075,0.2751996649364809,25.012562172134768,-0.003353267221866794,-0.015447710967776116,0.015807472132039226,0.0951021044243164,1.639482346826358
1,28,0.5428295445652905,0.6,6.185336972402754,0.30513367345476944,25.01317243948168,0.01693839360011829,-0.006510255933001469,0.018146421412105172,0.10347219190540777,1.7429545387317658
1,29,0.6441721568863695,0.6,6.14514467651556,0.31464521700160436,25.01380172991568,-0.019244972643558855,0.0001747915902505673,0.01924576639553102,0.08878254429702234,1.831737083028788
1,30,0.6364579723853638,0.6,6.205535245931904,0.2193206433523955,25.014240371202387,-0.00016587903196519857,-0.016020576556067475,0.01602143529906308,0.08236435075478526,1.9141014337835733
1,31,0.6732960252673496,0.6,6.181841054969726,0.2556128085040791,25.014751596819394,-0.026208837566997517,0.0026705086934918293,0.026344539914283486,0.06908408228502223,1.9831855160685956
1,32,0.5362518594785999,0.6,6.259239530902103,0.16871000384755205,25.01508901682709,0.006416669101359494,0.008235041539637314,0.0104398061052825,0.06778284587424506,2.0509683619428407
1,33,0.6182150740236987,0.6,6.127651498196213,0.3582747750748947,25.01580556637724,0.03185067086425353,0.006552637307225978,0.032517722709056035,0.08863692077962745,2.139605282722468
1,34,0.5948341958386945,0.6,6.217694627739543,0.21969808295413043,25.016244962543148,0.006336869173445558,-0.0009815038964295793,0.006412430180522126,0.09217454396264063,2.2317798266851088
1,35,0.5395448784437914,0.6,6.196596282229135,0.2818837950217403,25.016808730133192,-0.0035601278745206483,-0.004100496932025485,0.0054303393607112,0.09805887864730249,2.329838705332411
1,36,0.4294673597647855,0.6,6.235808738204373,0.26562906801574054,25.017339988269224,-0.013535542008272426,-0.0034598177569938643,0.01397072783964091,0.09408278664395783,2.423921491976369
1,37,0.7139565497392785,0.6,6.156027308913534,0.2719279179959551,25.017883844105217,-0.00647917303120297,0.0023218103620027577,0.006882622067596859,0.08603854823310111,2.50996004020947
1,38,0.7122494892918956,0.6,6.175688956774125,0.24304970841037332,25.01836994352204,-0.014005630273130917,0.004160500462614255,0.014610525091421411,0.07746153272013738,2.5874215729296073
1,39,0.4645476611742001,0.6,6.223607114742722,0.26047096024517324,25.01889088544253,-0.009045390282451857,0.006769080350302456,0.011297766777143406,0.06415355512990452,2.6515751280595117
1,40,0.6109559227488147,0.6,6.2329038776809975,0.19073085127877132,25.019272347145087,-0.009879855458983965,-0.016760038063299766,0.019455344247112986,0.057363829361391776,2.7089389574209033
1,41,0.6458475014993708,0.6,6.172435579088697,0.2688285595453641,25.019810004264176,0.01699758147621961,-0.005757879698130661,0.0179463354102967,0.0691507620730838,2.778089719493987
1,42,0.532366404231686,0.6,6.252563088750667,0.1854461437845616,25.020180896551746,-0.006751518358736426,-0.013833639553950554,0.01539326422358105,0.06965521749898321,2.8477449369929704
1,43,0.6893221760749619,0.6,6.175081170994404,0.25190273974985794,25.020684702031247,-0.02275804610775422,-0.0005256729626954629,0.022764116383167082,0.05286031177573407,2.9006052487687044
1,44,0.5522503089581173,0.6,6.231212210559407,0.21544268319546012,25.021115587397638,-0.02175769095302319,0.0009740016626878341,0.02177948105089251,0.034211482539695595,2.9348167313084
1,45,0.2448740546663455,0.6,6.3237444563442855,0.10895631636788039,25.021333500030373,4.5229378561542286e-05,-0.003909533751876011,0.003909795372361932,0.04078079774212734,2.9755975290505274
1,46,0.8497708558508485,0.6,6.203033381025257,0.17725488269852144,25.02168800979577,0.005753931426954424,0.010201727117157998,0.011712513096643716,0.04764013574140649,3.023237664791934
1,47,0.5764249463215912,0.6,6.239890064543636,0.19306134872368264,25.022074132493216,-0.016137045713454107,0.012111452896827008,0.020176509500658604,0.041955623689421934,3.065193288481356
1,48,0.6520645867051638,0.6,6.204918344664178,0.22086650690498366,25.022515865507025,0.03174178625324511,-0.010600158227215472,0.03346497197053517,0.050658242965827625,3.1158515314471837
1,49,0.5946820077643609,0.6,6.246756333098013,0.1753302770938071,25.02286652606121,-0.004419811595994722,0.0037005588784751876,0.005764448851117594,0.050232921662461655,3.1660844531096455
1,50,0.6039455753641989,0.6,6.215700235716577,0.21989413896808507,25.02330631433915,-0.005424729863280188,-0.004607197873885533,0.007117159991084875,0.03814436097886233,3.204228814088508
1,51,0.493940364338812,0.6,6.284180202487294,0.13282543427751484,25.023571965207704,-0.012494036408598159,0.010777438059762627,0.016500124754419174,0.026987340166948558,3.2312161542554563
1,52,0.6689061978106581,0.6,6.2743451428627415,0.11326210158938749,25.023798489410883,-0.008388706617168082,-0.0028688719238990764,0.008865710621526959,0.019020348062686265,3.2502365023181428
1,53,0.7223910164262535,0.6,6.26944801294358,0.11026649880897334,25.0240190224085,0.006226864750014294,-0.00890915082995528,0.010869536012446135,0.022502049235461164,3.272738551553604
1,54,0.6506644785042751,0.6,6.2795089440798595,0.11222952599477243,25.024243481460488,-0.01487076027401699,0.009432607249694948,0.017610042324034306,0.014678291720006512,3.2874168432736104
1,55,0.47738477631772047,0.6,6.281701421432296,0.13960606352625798,25.02452269358754,-0.014587668209921741,0.006063195243593808,0.015797544124473904,0.02668234589005218,3.3140991891636626
1,56,0.7048180946033172,0.6,6.243280900673434,0.1550648022863699,25.02483282319211,-0.003542046430222323,-0.004533858038513877,0.005753430422560753,0.012455205466669768,3.326554394630332
1,57,0.7519046400764912,0.6,6.306981215648756,0.057000552842318516,25.024946824297796,-0.005770832100870654,0.0015670385527236396,0.005979808773042947,0.010331308809715967,3.336885703440048
1,58,0.6855622432037586,0.6,6.242964944261762,0.15292029543351573,25.02525266488866,0.024397402577341902,-0.006894491845499376,0.02535285526974322,0.021083392906033158,3.357969096346081
1,59,1.0064506981625954,0.6,6.259356513735324,0.08963682543590462,25.025431938539533,-0.007427833430032985,0.006203582983435125,0.009677662491360269,0.01845211761607965,3.3764212139621606
1,60,0.4904176356596716,0.6,6.269663864810201,0.16495517112014246,25.025761848881775,0.010982538613439848,0.00160928168298223,0.011099817202588489,0.029591477345545045,3.406012691307706
1,61,0.6377435773203618,0.6,6.279109617831415,0.1092261857178416,25.02598030125321,0.003938734382794462,-0.009931236109295806,0.010683776448278398,0.030725794675176547,3.4367384859828825
1,62,0.5996125628688851,0.6,6.239468769657202,0.18586854995966506,25.026352038353128,0.017776877823847986,-0.01570623408633453,0.023721365355703176,0.04206952784839525,3.478808013831278
1,63,0.8264721509898468,0.6,6.2244955220646485,0.1525706025778439,25.026657179558285,-0.022831631840501136,-0.010225068436356035,0.025016703160655476,0.04179353830191601,3.520601552133194
1,64,0.7553417921477055,0.6,6.2607489234213975,0.11590143637486489,25.026888982431036,0.018688301010285874,0.0016422775548733395,0.01876032169815573,0.04400048999012629,3.56460204212332
1,65,0.6221564796500196,0.6,6.232256892368927,0.18445745442654793,25.02725789733989,0.004354480152035437,-0.0076149221181162335,0.008772031478480135,0.05127334376964036,3.6158753858929606
1,66,0.48708584616481115,0.6,6.234412338950995,0.24153205893414748,25.02774096145776,0.0034653654967294664,-0.011158969859603945,0.011684663724449769,0.060725248635599686,3.6766006345285605
1,67,0.7561893073244828,0.6,6.17558816961193,0.2317351022908814,25.028204431662342,0.015739305177769555,0.0005892558918162996,0.015750331742061936,0.06831935558849057,3.744919990117051
1,68,0.7700495946871864,0.6,6.2139494110698426,0.17853315823148147,25.028561497978806,-0.00577361671665956,-0.002334666615436927,0.006227785978670625,0.0656368833195481,3.810556873436599
1,69,0.5776732620593306,0.6,6.17003142790346,0.31230845353693565,25.02918611488588,0.03196347214489425,0.017195893074161944,0.036295485809883316,0.08240040685678462,3.8929572802933836
1,70,0.7531133890009626,0.6,6.14260971144867,0.2758303785453455,25.02973777564297,0.005753940887179779,0.0009395322938556872,0.005830142079259901,0.08945541728590145,3.982412697579285
1,71,0.6545698083430932,0.6,6.206906723786322,0.219511725240457,25.030176799093454,0.001816463684107407,-0.014169061131262595,0.014285021304049128,0.09594033643053648,4.0783530340098215
1,72,0.6717563012934723,0.6,6.160725516855472,0.2830873195593957,25.030742973732572,0.013311458346412263,5.2926462993608534e-05,0.013311563564012821,0.10103593765645079,4.179388971666272
1,73,0.6165408317201398,0.6,6.173524545128839,0.28095145869678906,25.031304876649966,0.003042746598948762,0.0019429293804577167,0.0036101636310366964,0.10493799192511567,4.284326963591388
1,74,0.5585254197575288,0.6,6.186692992058008,0.287425533444019,25.031879727716852,-0.003561763134913511,-0.0011038929902688775,0.0037289055181371493,0.10920252034847741,4.393529483939865
1,75,0.574824961557053,0.6,6.160536842105846,0.3312096074675421,25.03254214693179,-0.012077495422538435,0.020210435614847973,0.02354416283122745,0.09373598367377953,4.4872654676136445
1,76,0.5811784453212783,0.6,6.223408086510718,0.21762986237868565,25.032977406656546,-0.013237430672149941,-0.009788298593587699,0.01646330343999062,0.08567374342673362,4.572939211040378
1,77,0.6650285416035735,0.6,6.192432427515204,0.2458520641199082,25.033469110784786,-0.016564313377026324,-0.007931173627076717,0.01836518425595481,0.07871447386603878,4.6516536849064165
1,78,0.7352531376130406,0.6,6.137632919808351,0.28673157939275573,25.034042573943573,-0.027514353132354733,-0.0070972796584688825,0.028414978564877274,0.053956826079289616,4.705610510985706
1,79,0.5043198774594667,0.6,6.19413102803531,0.3037528491512022,25.034650079641874,0.029278984811761832,0.004960009463439622,0.0296961385618533,0.07194987024590577,4.777560381231612
1,80,0.6656288962066267,0.6,6.175751520499191,0.26012202430271203,25.03517032369048,0.015145032575462389,-0.02655619092974933,0.030571282086447035,0.07846894270808365,4.856029323939696
1,81,0.6051441885641706,0.6,6.162482781235924,0.3110052325847848,25.035792334155648,0.0029870337218339225,-0.0034994336458910474,0.00460091363724286,0.09175532926300733,4.947784653202703
1,82,0.42767005983280415,0.6,6.2153671183529555,0.31426227116386013,25.036420858697976,0.0012417807878529656,-0.005142339659399888,0.005290149024150236,0.09958263971891033,5.047367292921614
1,83,0.5732644426126507,0.6,6.1836401091042665,0.2900242324932977,25.037000907162962,-0.0031752142681066957,-0.0023421580134453655,0.003945591186163955,0.08544395699414566,5.132811249915759
1,84,0.7279647567487337,0.6,6.180955758800739,0.22731925112428542,25.03745554566521,-0.017810481530777078,0.013014280716647609,0.022058666209221655,0.07942505476974546,5.212236304685505
1,85,0.6736646969921439,0.6,6.152103723929615,0.28542007163082395,25.03802638580847,0.00040953405058392466,0.0017581895329602801,0.0018052558191012057,0.08643515202167021,5.298671456707176
1,86,0.5955786386881365,0.6,6.199545517421412,0.2602334599912202,25.038546852728455,0.00011733073744804893,-0.009130792180417964,0.00913154599966139,0.08877853956860146,5.387449996275778
1,87,0.573101268470051,0.6,6.193533703033278,0.2688477603107074,25.039084548249075,-0.010322611476451912,0.014123277060374431,0.017493520589574738,0.06908850345679698,5.4565384997325745
1,88,0.764403598475834,0.6,6.1376445921563345,0.2792722111173841,25.03964309267131,-0.012356013756009131,0.0006485610634357618,0.012373023373116685,0.044483784058851256,5.501022283791426
1,89,0.6306811510043567,0.6,6.248170238418224,0.16099475444592964,25.0399650821802,-0.01327423854559419,-0.001098827793093138,0.013319640816636629,0.03323851392092374,5.534260797712349
1,90,0.6536038859558055,0.6,6.269570284334846,0.12598219844624825,25.04021704657709,0.000964494865584138,-0.004438360931551978,0.004541948712223103,0.03804946301793305,5.572310260730283
1,91,0.4511353093614574,0.6,6.274174920111909,0.1657544198564277,25.040548555416805,0.01461631245987494,0.0009632135592119683,0.014648015916339836,0.051026489753282125,5.623336750483564
1,92,0.6749112588287455,0.6,6.205066298308719,0.21895531009998737,25.040986466037005,-0.013319705954536076,0.0002033418170524325,0.013321257996520675,0.061348521970157846,5.684685272453722
1,93,0.396712229785671,0.6,6.271240396362199,0.19830789544510546,25.041383081827895,-0.011663409451793177,-0.017815628557055915,0.021293936717365455,0.04773441554685086,5.732419688000572
1,94,0.5638329010975113,0.6,6.25654016774056,0.16759164353617353,25.041718265114966,-0.00597760915345628,0.005270042084546597,0.007969012157374122,0.04167052740421882,5.774090215404791
1,95,0.6024426720119358,0.6,6.265935147664268,0.1413416112898917,25.042000948337545,0.012269564593280154,-0.003638588099707899,0.012797716150470363,0.048041293790153775,5.822131509194945
1,96,0.6294952135724597,0.6,6.26080040029491,0.14429753245710208,25.04228954340246,-0.026378435469225078,-0.00659891729729498,0.027191314188553126,0.04118089933574472,5.863312408530689
1,97,0.6580660425292453,0.6,6.232948231932678,0.1766092925598261,25.04264276198758,-0.011685610187208702,0.004453932508947973,0.012505638737851793,0.031664784847902507,5.894977193378591
1,98,0.4092276340687938,0.6,6.32745954942855,0.05567781399866634,25.042754117615576,-0.0032857787495987507,-0.010840366206719345,0.01132739517661044,0.03057441638161589,5.925551609760207
1,99,0.6551691306222627,0.6,6.242225706517277,0.16395605971450747,25.043082029735004,-0.0028412055565912187,-0.0017858909208732915,0.003355868798994155,0.03703477585026788,5.962586385610475
2,0,0.851331955896872,0.6,6.285591923978627,0.07586784367481075,25.00015173568735,-0.0175639226135138,-0.005900576458695397,0.01852857739057189,0.0,0.0
2,1,0.5714593114176517,0.6,6.296471910218002,0.09305174540799979,25.000337839178165,-0.006528456028751583,-0.013032427541123158,0.01457617596401636,0.010895105949340723,0.010895105949340723
2,2,0.6167047824288041,0.6,6.222301929205848,0.2084331633309211,25.00075470550483,0.019200125879016705,0.0032962298212773807,0.019481015497267214,0.02785679619522832,0.03875190214456904
2,3,0.5373809487680093,0.6,6.225473566096153,0.2300927475851319,25.001214891,0.019831571108763695,-0.0030224973045507005,0.020060575829172183,0.049930956646508415,0.08868285879107746
2,4,0.5919549412476347,0.6,6.264791171002045,0.14812602163851069,25.001511143043277,0.002694102964248749,-1.385042735095726e-05,0.002694138566650145,0.05318638981524473,0.1418692486063222
2,5,0.5359907290570523,0.6,6.26656442246384,0.15459817676140056,25.0018203393968,-0.0047296697636111185,0.004032645401632468,0.006215464987281703,0.05299476046215362,0.1948640090684758
2,6,0.5162192129775036,0.6,6.265319621125791,0.16847802469906215,25.0021572954462,-0.0033833438171752854,0.013675972398067136,0.014088265912379437,0.050515236717747804,0.2453792457862236
2,7,0.6935530206207516,0.6,6.174348681580523,0.25215424697935707,25.002661603940158,0.02758193011898894,-0.000722870075600049,0.027591401019792152,0.0678078119107882,0.31318705769701183
2,8,0.5505954326818855,0.6,6.224324555124756,0.21902255772551774,25.00309964905561,0.002384249495270182,0.005200406145708678,0.005720915113512934,0.0670204551431315,0.3802075128401433
2,9,0.5922875282673189,0.6,6.201106424119327,0.24591343950368807,25.003591475934616,0.0038470009981933537,-0.009456157955562913,0.010208738411804684,0.07457449617352939,0.4547820090136727
2,10,0.5529037595136784,0.6,6.246104460928251,0.18824220154090343,25.003967960337697,-0.009266512352103799,-0.006493379277303882,0.011315132593593933,0.06978963744823267,0.5245716464619053
2,11,0.7675983408851174,0.6,6.163113202153951,0.24467080589345064,25.004457301949483,-0.0006703145352156131,-0.018845858449794476,0.01885777564522951,0.07457644265319488,0.5991480891151002
2,12,0.5844741190761716,0.6,6.219005446687124,0.22564124071456115,25.00490858443091,-0.024304490823736927,0.010170209914132446,0.02634656417635192,0.059661767556235805,0.658809856671336
2,13,0.6483121693700404,0.6,6.146717422076818,0.31909087427836513,25.005546766179467,0.027817615166170866,0.008674074113549179,0.029138621711750943,0.07992542576577329,0.7387352824371093
2,14,0.320659988049581,0.6,6.295837040786714,0.16083129940493046,25.005868428778278,-0.0029148600448948548,0.023807453512197502,0.023985229867915996,0.07736824643948065,0.8161035288765899
2,15,0.6908156490086537,0.6,6.153929654943348,0.2767040227816957,25.00642183682384,0.0022419149990001294,0.010907497344345,0.011135514410193854,0.08493718935827632,0.9010407182348662
2,16,0.5914381710642649,0.6,6.231386450753489,0.20428815840901754,25.00683041314066,-0.01440561540303445,-0.012105429941233517,0.018816566881401514,0.08498097594597559,0.9860216941808417
2,17,0.6029048160092598,0.6,6.201690976635814,0.2550090898052667,25.00734043132027,0.004979667118619937,-0.00035095176869670385,0.0049920188056753086,0.08059618580628437,1.0666178799871262
2,18,0.6493211887428081,0.6,6.136965314668438,0.33156043046902084,25.008003552181208,0.009627893261648392,-0.002903971008038668,0.010056310271328328,0.0971873456065436,1.1638052255936697
2,19,0.6410854390633793,0.6,6.123179547284437,0.3512627082812175,25.008706077597772,0.0257769982548122,-0.005525406734167292,0.026362544615544468,0.11274643800546907,1.2765516635991387
2,20,0.5827549268991611,0.6,6.1888482630715504,0.2747170780254257,25.00925551175382,-0.019161712758778746,-0.008871809418450402,0.0211158764489483,0.1096030857364157,1.3861547493355544
2,21,0.5549112036583955,0.6,6.17489118716535,0.31893715612805235,25.00989338606608,-0.013341782161350051,-0.008157915419939713,0.015638245913139,0.10131488674770975,1.4874696360832642
2,22,0.3704925177233507,0.6,6.255216708520688,0.24121216551841965,25.010375810397115,0.0024334206593935453,-0.012845522979925273,0.013073981670988817,0.0981082220563652,1.5855778581396294
2,23,0.6890454961629116,0.6,6.185761457499084,0.2344766054187716,25.010844763607953,0.01869560441683714,-0.00132988422309592,0.018742844409472638,0.09925396493578176,1.6848318230754111
2,24,0.6064513937899954,0.6,6.184384431610347,0.2763709244682981,25.011397505456888,-0.023824984997737338,0.003036039044620014,0.024017648578136586,0.09367154649742272,1.7785033695728338
2,25,0.5845578250065501,0.6,6.1929860957555505,0.276629683221525,25.011950764823332,0.010211216687734517,0.008214059370248113,0.013104950117487236,0.10403134021870426,1.8825347097915381
2,26,0.5816967607764759,0.6,6.169576998778209,0.3020305598558677,25.012554825943045,0.0037895401102134114,0.002656879749662359,0.004628133992343155,0.11233391069994293,1.9948686204914812
2,27,0.5454862230919306,0.6,6.165713658016945,0.3311433609765299,25.013217112665,0.006980641121834972,0.00019279384513077216,0.006983302939052102,0.12033152456732663,2.115200145058808
2,28,0.6242266875106471,0.6,6.090648245591458,0.4156190360810974,25.014048350737163,0.009271625561364264,0.0019275384906521618,0.009469870388927656,0.13879428457739032,2.2539944296361982
2,29,0.6006245482222896,0.6,6.163817092939185,0.3083519600635618,25.01466505465729,-0.021854213643881442,-0.0006713415461452177,0.02186452271292457,0.1332643039541887,2.3872587335903868
2,30,0.5575785604535735,0.6,6.109083791383919,0.4219245874511732,25.015508903832192,0.018336112914548158,0.0014844958138007808,0.01839610732291622,0.14683143317951464,2.5340901667699014
2,31,0.6730148981216219,0.6,6.10058442413935,0.37036660225095575,25.016249637036694,-0.004971399538858809,-0.000500840942848221,0.004996564322111612,0.1494387422449075,2.683528909014809
2,32,0.6328218739329862,0.6,6.086292226843216,0.41088054231316207,25.01707139812132,-0.01117201942807352,-0.010770990694039948,0.015518642293459416,0.13752085875139844,2.8210497677662074
2,33,0.5213993816866583,0.6,6.182360291927527,0.3264385822504431,25.017724275285822,-0.006573414084122448,-0.003912170521740163,0.0076495000433042725,0.13152213985192993,2.9525719076181374
2,34,0.5734519596238418,0.6,6.132592790233121,0.3789470964342246,25.01848216947869,-0.008625338117156182,-0.0011246598255955271,0.008698351416134894,0.13977910201248805,3.0923510096306255
2,35,0.5378808614034798,0.6,6.151616206055368,0.36436773767419206,25.01921090495404,-0.0026189570505689673,0.017358789976857133,0.01755524210865121,0.13247629261914856,3.224827302249774
2,36,0.646022579412515,0.6,6.109529109391015,0.37236528944262115,25.019955635532924,-0.008036212586038859,0.00011498899870062375,0.008037035224374193,0.12455153615152811,3.349378838401302
2,37,0.6458300488376851,0.6,6.148380466874532,0.3137752123304644,25.020583185957584,-0.005531582889129147,0.02225944331738259,0.02293646062624037,0.11571960211729584,3.465098440518598
2,38,0.5924205191590948,0.6,6.134372683305867,0.37020784835009346,25.021323601654284,0.014443948094566809,-0.0006964157844693558,0.014460727212121742,0.12985753196847746,3.5949559724870754
2,39,0.6483960561277032,0.6,6.135951224851553,0.32847060782057,25.021980542869926,0.004234327679315962,0.003114470715541555,0.005256373153971018,0.1293875281993286,3.724343500686404
2,40,0.5589123204017308,0.6,6.182503581869051,0.3115785565229985,25.022603699982973,0.005521229715393114,-0.001931767015498399,0.005849418891847935,0.13084460297795966,3.855188103664364
2,41,0.6436356094611302,0.6,6.127275902290599,0.34621715135890574,25.02329613428569,-0.019355023738549984,-0.011539503636520095,0.022533909738371945,0.13731754556910913,3.9925056492334727
2,42,0.6615736645272005,0.6,6.141426277967984,0.3132014333236221,25.023922537152337,-0.021641026051425465,-0.004060717962598319,0.022018706568058086,0.13210617245298975,4.124611821686463
2,43,0.532697046790218,0.6,6.172437437162543,0.3344104057455621,25.02459135796383,-0.006352698677206784,0.0009945445703071175,0.006430077712260731,0.12554285356236233,4.250154675248825
2,44,0.6109276667858857,0.6,6.172031434954171,0.2927884309173546,25.025176934825662,-0.011987957430455554,0.008656529228158533,0.014786704218059462,0.12726249595733738,4.3774171712061625
2,45,0.6045329160199272,0.6,6.127667215738363,0.3625100473876241,25.02590195492044,0.01708131558472633,-0.010612222874459091,0.020109465841792202,0.13735000670618555,4.514767177912348
2,46,0.5788670918164442,0.6,6.159378528995009,0.3194009275753609,25.02654075677559,0.009304845650609175,-0.00964606424206264,0.013402488871238056,0.13339023593313779,4.648157413845485
2,47,0.639548818348251,0.6,6.145907565007156,0.3147502412573224,25.027170257258103,0.008623908673373577,-0.005256405931019397,0.010099584353741687,0.13265015917098677,4.780807573016472
2,48,0.6465574634923035,0.6,6.151418062079641,0.309397182139007,25.02778905162238,0.010750770890385595,-0.0017531640232701996,0.010892780124011098,0.1340968451002612,4.914904418116733
2,49,0.6268787362674464,0.6,6.089845336950427,0.40503946147481396,25.02859913054533,0.01031536265125103,-0.004040322938509372,0.011078398624091377,0.11846796187383071,5.033372379990564
2,50,0.5786892281806446,0.6,6.167355199347317,0.3166594976218792,25.029232449540576,-0.02298141504253305,0.018227236001279595,0.02933219339912219,0.10400383880383356,5.137376218794397
2,51,0.5349186550726917,0.6,6.222116375300981,0.24516248778038735,25.029722774516138,-0.011791111636479352,-0.014013472930393105,0.01831414036188374,0.10038765814351647,5.237763876937914
2,52,0.6926417098959263,0.6,6.148054669585364,0.2956881620445045,25.030314150840226,0.011712091379580505,-0.0026393734859268786,0.012005805965525921,0.11265327500332087,5.350417151941234
2,53,0.6987406083180777,0.6,6.142771706663928,0.3020909314880154,25.0309183327032,0.01751297909347985,0.002053325637779597,0.017632940279585403,0.11691611356793256,5.467333265509167
2,54,0.6138613666094633,0.6,6.142905648196311,0.3359428248389542,25.03159021835288,0.004404541289931902,0.014713219561423383,0.015358346715625568,0.11767584236545942,5.585009107874626
2,55,0.5705400202833614,0.6,6.120185967768715,0.39330109525078566,25.03237682054338,0.013040362228466763,-0.008402903954793066,0.015513215073707306,0.1338359656730883,5.7188450735477145
2,56,0.6357713385750944,0.6,6.102758741998425,0.38565920794241915,25.033148138959266,-0.0077934262111300865,0.012978252669735854,0.015138445576340897,0.12238405158278964,5.841229125130504
2,57,0.6064968467047005,0.6,6.11932798352381,0.3819644281852767,25.033912067815635,0.007328752845449952,0.014350493867891546,0.016113574790284236,0.12695679768839904,5.968185922818903
2,58,0.6594832383682343,0.6,6.131714646362953,0.3322259695648488,25.034576519754765,0.018390158055175843,-0.004103817936578706,0.01884248484014075,0.13133350743065528,6.099519430249559
2,59,0.5421363058965708,0.6,6.159260851934,0.3466825687227095,25.03526988489221,0.027622555746365914,-0.012791611070282583,0.030440612670156107,0.13548959287175558,6.235009023121314
2,60,0.5915991744376476,0.6,6.142721995176243,0.3553544471227319,25.035980593786455,-0.010165493526861556,-0.0007480498268034107,0.010192979799256192,0.13028512268471965,6.365294145806034
2,61,0.5679039954691055,0.6,6.157004171513815,0.3446740149564087,25.036669941816367,-0.007485453357451743,0.009688826385630508,0.012243584797659364,0.12937893025263586,6.49467307605867
2,62,0.4804339703348806,0.6,6.182821463843288,0.34576623209180146,25.03736147428055,-0.0027451076940261765,-0.008640449911023695,0.009066035016296325,0.13069685386306032,6.625369929921731
2,63,0.575455105110475,0.6,6.170428303836907,0.31126964025752063,25.037984013561065,-0.0061214733112854355,0.010645851361278517,0.012280333330460356,0.12819137335959108,6.753561303281322
2,64,0.6307330511497855,0.6,6.134497930621452,0.3456387247246299,25.038675291010513,0.0036546758197486783,-0.003030982534240727,0.004748000681374005,0.11799343371211746,6.871554736993439
2,65,0.6520861830692005,0.6,6.140907777219415,0.32183962464953686,25.039318970259814,0.007502190754307889,0.004128708204461747,0.008563241065835558,0.12260441941363723,6.994159156407076
2,66,0.6719628238562134,0.6,6.144752194565835,0.30382597756216995,25.03992662221494,0.0033151958875337986,0.008924738873315304,0.009520582320929026,0.12035998850407305,7.114519144911149
2,67,0.5870894382110932,0.6,6.171206047179406,0.3055916988717918,25.040537805612683,0.0011485887613438897,-0.018180776303835695,0.01821702179701169,0.11610084141241303,7.230619986323562
2,68,0.6863783574171074,0.6,6.157617995394178,0.2872923293779125,25.04111239027144,0.0015122678296646502,0.015634047450289294,0.01570701733832798,0.11599751656969601,7.346617502893258
2,69,0.5675510750887353,0.6,6.182666658618441,0.2863639763347866,25.04168511822411,-0.005355325969039438,0.0009721923200291803,0.005442855329860598,0.10849253469439564,7.455110037587653
2,70,0.6122080646401639,0.6,6.1255558380219215,0.3601576916339634,25.042405433607378,0.028430451559414413,-0.007921150205651501,0.02951330541387566,0.11979993404037709,7.57490997162803
2,71,0.5201269264366524,0.6,6.192821028021299,0.29920846381572236,25.04300385053501,-0.017972283636538376,0.0013768982590334734,0.018024950150497352,0.10936469506564472,7.684274666693675
2,72,0.5522461372319784,0.6,6.210168690888383,0.2581852307519767,25.043520220996513,0.008847258477261286,0.00766919669661199,0.011708567825946774,0.10835877845350735,7.792633445147182
2,73,0.4782312263582727,0.6,6.222865552625883,0.26753243916942543,25.04405528587485,0.011271941741956032,0.011149623229474022,0.015854676559087465,0.11354915591945697,7.9061826010666385
2,74,0.5716901705102763,0.6,6.124521000311982,0.39031653812321737,25.044835918951097,0.015309506948261824,-0.008541612608143545,0.017531119443620076,0.1285277653563312,8.034710366422969
2,75,0.6204496730607919,0.6,6.158875169237533,0.3133405882375348,25.04546260012757,0.02365756587584973,0.0018949963754791347,0.023733340144894245,0.12047558349927914,8.155185949922249
2,76,0.6102518281009208,0.6,6.129876781703589,0.35684590127815075,25.046176291930127,-0.011433194448258563,-0.012406245995562275,0.016871066207981504,0.10694389427179003,8.262129844194039
2,77,0.5969545432610857,0.6,6.179868373994341,0.28683197356994644,25.046749955877267,0.004205164785315132,0.00016338084112892495,0.004208337459247114,0.1104741364846971,8.372603980678736
2,78,0.6531555091244733,0.6,6.145874507023663,0.3058264062833849,25.047361608689833,0.003179351019787587,-0.014327354899341081,0.014675877190774568,0.11426986802620684,8.486873848704944
2,79,0.5500253176031237,0.6,6.1776704520909815,0.30745296891223206,25.047976514627656,-0.007154296612979163,0.003283012950007554,0.007871603016946576,0.11571819593280286,8.602592044637747
2,80,0.5483646389775804,0.6,6.190423522285913,0.28585767889840974,25.048548229985453,-0.007597144743727211,-0.008000824760846013,0.011033123089629185,0.11213339828818747,8.714725442925936
2,81,0.5531530208836902,0.6,6.191913761048647,0.28605913723046855,25.049120348259915,-0.01843624109752305,-0.0023110160759299654,0.018580521551054607,0.10248876347901517,8.81721420640495
2,82,0.4478373751428774,0.6,6.222458219259109,0.2842221190637269,25.049688792498042,-0.00732036014881937,-0.0006548837514448298,0.007349594916478676,0.08785181405989187,8.905066020464842
2,83,0.6769786113624162,0.6,6.156401048126449,0.28584436653836953,25.05026048123112,0.022485162890593782,-0.00795500550053291,0.02385088389829703,0.09454832500632077,8.999614345471162
2,84,0.5830433595268598,0.6,6.210000170916026,0.2423005175791643,25.05074508226628,0.009554885510232296,0.004994982334686595,0.010781729250796379,0.0914290939683665,9.09104343943953
2,85,0.5335914260522873,0.6,6.1998637528757055,0.27369744594520934,25.051292477158167,0.027500241748739992,0.017699213881967338,0.03270360023420613,0.09366565331354651,9.184709092753076
2,86,0.49298152189023203,0.6,6.225558041550706,0.2515485557486848,25.051795574269665,0.008254810344744802,0.011045784735714766,0.013789534229097629,0.09461694575452112,9.279326038507596
2,87,0.5309005190873805,0.6,6.218417898718747,0.25001711539577454,25.052295608500458,0.0016280119503429454,-0.0013256801465371805,0.0020994882141565554,0.08700699210172459,9.36633303060932
2,88,0.7230992359808798,0.6,6.214936430197584,0.1869059354537782,25.052669420371366,0.008654820875927576,0.005311783665356953,0.010154849585392426,0.0874162407820098,9.453749271391331
2,89,0.5821583667806474,0.6,6.21440634654985,0.23322874350485961,25.053135877858377,0.016021411330919118,0.0014644077047824987,0.016088197877957924,0.08939219696353179,9.543141468354863
2,90,0.46097624025109324,0.6,6.2372222252304335,0.23858826918139575,25.05361305439674,-0.004106704787990829,-0.0026837273520938123,0.0049058553500978055,0.07764051764520563,9.620781986000068
2,91,0.4872214716487945,0.6,6.242207537163049,0.22036693671022495,25.054053788270163,0.0022051724680030526,-0.015308034973994926,0.015466050574684235,0.08017888294166022,9.700960868941728
2,92,0.5958152070242833,0.6,6.196789871343107,0.2633217337832797,25.05458043173773,0.006600730370716328,0.002989774561190176,0.007246267546374259,0.08622789976457422,9.787188768706303
2,93,0.6418463011771389,0.6,6.142588733068679,0.33049126662555606,25.05524141427098,0.029223541609335192,0.006783800988404704,0.03000058899493185,0.1060901498907986,9.893278918597101
2,94,0.5068732914290521,0.6,6.180585506068862,0.3367440708029721,25.055914902412585,0.012116163464517708,0.0015895867412564328,0.01221999194381453,0.11580764229636352,10.009086560893465
2,95,0.5426283174619556,0.6,6.2004674213347775,0.27491006625748227,25.0564647225451,0.020567026304471568,-0.000756504705884229,0.020580934633268003,0.11815551762223103,10.127242078515696
2,96,0.6487760239346673,0.6,6.144289761381961,0.321998496526423,25.057108719538153,0.02344426748513364,-0.0001477721965984478,0.023444733193973052,0.12254914870176449,10.249791227217461
2,97,0.7253212058225756,0.6,6.133486663557345,0.2977768309605135,25.057704273200073,-0.0007497215659474331,0.010547579251802828,0.01057419077279714,0.11928944597573382,10.369080673193194
2,98,0.6271507231917249,0.6,6.135693756104393,0.3479496400002151,25.058400172480074,0.007936893843197105,-0.00510029539755617,0.00943436786544349,0.12896097878965973,10.498041651982854
2,99,0.5931671167466999,0.6,6.0984494694987035,0.41987727722796936,25.05923992703453,-0.007089716577070339,0.005897036055747239,0.009221665542946617,0.14199006540503648,10.64003171738789
3,0,0.1781467913392473,0.6,6.337296723003861,0.07399947923853234,25.00014799895848,-0.002353779156691457,-0.012144013829592591,0.01237001811687482,0.009036302774478196,0.009036302774478196
3,1,0.4940191259722558,0.6,6.237229933733686,0.23115510602811762,25.000610309170536,0.031171952749936612,0.004046954556143003,0.03143355658247675,0.03484229031874657,0.04387859309322477
3,2,0.6368538274671266,0.6,6.189534335285935,0.25230676243958655,25.001114922695415,0.023949745565136415,0.005629897185861278,0.024602561959237906,0.051272570007111024,0.09515116310033579
3,3,0.5619858294790692,0.6,6.265657827331771,0.14899707129435286,25.001412916838003,0.018669460556335626,-0.003931531947541129,0.019078933432430344,0.05219544495371332,0.14734660805404912
3,4,0.5718792799139438,0.6,6.207878220460896,0.24788739067300505,25.00190869161935,0.003593335740054276,0.003015140573967662,0.004690749878381649,0.06335371598257508,0.2107003240366242
3,5,0.6630520855780077,0.6,6.1300292379193975,0.34067848608579965,25.00259004859152,0.007589813905167475,-0.01582685641802789,0.017552625421626937,0.0854093087881015,0.2961096328247257
3,6,0.6196451206154755,0.6,6.123737279048763,0.3587879167085917,25.003307624424938,0.042272639758565114,0.0011709087215544195,0.042288853134030864,0.10447395015386364,0.4005835829785893
3,7,0.5809438474167921,0.6,6.145355407692229,0.3555679191039904,25.004018760263147,0.020218856790620115,-0.003752224007606727,0.020564079238392013,0.11736856684693499,0.5179521498255243
3,8,0.6598043982679599,0.6,6.170387666856445,0.27334374168920833,25.004565447746526,0.01379695720681496,0.005990395263761841,0.01504130524864061,0.12071529029872305,0.6386674401242474
3,9,0.8072314653528447,0.6,6.124162044046342,0.28381795507518176,25.005133083656677,-0.003370742333753107,-0.004484650062040593,0.005610168451973259,0.12323683783007144,0.7619042779543188
3,10,0.6422816537186737,0.6,6.152620236806877,0.3173068659848199,25.005767697388645,0.01204592528184697,0.003592491565134564,0.012570215254378224,0.130228893726145,0.8921331716804638
3,11,0.6925871427566127,0.6,6.08882010514673,0.38787332780123907,25.006543444044247,-0.03199839430431016,0.014053654387244204,0.03494856849271823,0.11938105957371291,1.0115142312541767
3,12,0.5857267209981984,0.6,6.101669011135885,0.4279709938492859,25.007399386031945,0.014104491900317906,-0.014491176107369304,0.020222039381351337,0.14162349630634388,1.1531377275605206
3,13,0.5989320430230494,0.6,6.125046252230805,0.37208572619801,25.008143557484342,0.0003281570496225586,0.005080679093914777,0.005091265766443514,0.13228397324430183,1.2854217008048223
3,14,0.5596108500829983,0.6,6.181129440850252,0.2988929898725154,25.008741343464088,-0.001790975962771493,0.015762989726277175,0.015864407962793477,0.1295009486562153,1.4149226494610376
3,15,0.581603829494069,0.6,6.135851901758445,0.36226887006324976,25.009465881204214,0.026158409094613505,-0.005615787496032209,0.026754428335543826,0.13957413619134157,1.5544967856523793
3,16,0.5719910105968751,0.6,6.1263190208691825,0.37810998083048597,25.010222101165876,-0.008348916789231258,-0.004523502755690917,0.009495603652967562,0.1456894300419436,1.7001862156943228
3,17,0.6362375868325115,0.6,6.099856508675768,0.38500090310201834,25.01099210297208,0.0026097998841275102,-0.004684760446797232,0.005362651944613575,0.15231480537106454,1.8525010210653874
3,18,0.5641707356731114,0.6,6.12002529526616,0.4033814297707105,25.01179886583162,0.005337307346678429,-0.003480463796426194,0.00637185043383325,0.16021168940988564,2.012712710475273
3,19,0.6354166295520338,0.6,6.093451919391025,0.40046026777847427,25.012599786367176,-0.006576035069491435,-0.012973796559567399,0.014545227203595827,0.1543668507998762,2.1670795612751492
3,20,0.621800756484721,0.6,6.1342975091136696,0.34656567839447444,25.013292917723966,-0.008685170894599258,-0.002200757798203556,0.008959661174104065,0.15368081613668358,2.320760377411833
3,21,0.5544042768232836,0.6,6.092779701974034,0.46687590247725147,25.01422666952892,0.023460212008041596,-0.007744589687708259,0.024705469372048292,0.16939942204653702,2.49015979945837
3,22,0.6219324206644475,0.6,6.0940028800212245,0.40624100866879354,25.015039151546258,-0.012793524432871559,0.01496139636951632,0.01968546795837624,0.17150855149273844,2.6616683509511083
3,23,0.6123123075810648,0.6,6.072710430579851,0.4465661765783194,25.015932283899414,-0.0026496926397488445,-0.006311919417468571,0.006845523925731031,0.16263366744993962,2.824302018401048
3,24,0.5674712262797665,0.6,6.107272695894809,0.4205596567125767,25.016773403212838,0.01573473302409649,0.004879726826630046,0.016474026746431048,0.17005488989418843,2.9943569082952366
3,25,0.5998014840544793,0.6,6.080257771400724,0.46757448187880807,25.017708552176597,0.007800682297442128,-0.0018883478021778381,0.008025989143253115,0.16185289400414296,3.1562098022993794
3,26,0.6912822264063155,0.6,6.089863053883894,0.3725606251792491,25.018453673426954,0.00015965329333997996,0.015259575608848084,0.015260410772198292,0.15954488705768324,3.3157546893570626
3,27,0.6561805368279279,0.6,6.082681615944367,0.4037775287092777,25.01926122848437,-0.010258613478445606,0.003718110814974935,0.010911622176953316,0.1538626795221329,3.4696173688791956
3,28,0.5663505656941304,0.6,6.1090487430807885,0.4272799935455165,25.02011578847146,0.011090477950081046,0.015885306910975325,0.019373736779906822,0.16104950803712773,3.6306668769163233
3,29,0.6951495488008843,0.6,6.075495389287812,0.39723622030370487,25.020910260912068,-0.008046708040826477,2.5711824315100253e-05,0.008046749119502303,0.15783529542109231,3.7885021723374157
3,30,0.5760227139896569,0.6,6.093332872389154,0.4572847973917072,25.02182483050685,0.016508272597085007,0.011710410646204884,0.020239979783646438,0.17045262832952013,3.9589548006669357
3,31,0.636713608487132,0.6,6.100943405566301,0.39767367684288024,25.02262017786054,0.00183004092819186,-0.005072344618949226,0.005392377002050255,0.16814175571977605,4.127096556386712
3,32,0.5923531908300755,0.6,6.093469159038846,0.42624246856732373,25.023472662797673,0.004051630322359839,-0.019805655910689397,0.020215828311540725,0.17087426848426177,4.297970824870974
3,33,0.6299197708514102,0.6,6.074499419839811,0.44352394239100995,25.024359710682454,-0.0050513491766831144,0.01947098642820358,0.02011555221693069,0.17947454807983035,4.477445372950804
3,34,0.5576010621521027,0.6,6.122784273082508,0.4127337029680586,25.02518517808839,0.019762421965385493,-0.0021120598363152,0.01987496210537587,0.17472467285446508,4.652170045805269
3,35,0.6106458032781203,0.6,6.120222378177461,0.3718926271259369,25.02592896334264,-0.005164203803145598,-0.01744187756553955,0.018190329681775846,0.17404813918237447,4.826218184987643
3,36,0.7024510034200179,0.6,5.999852119743452,0.49017304048119,25.0269093094236,0.011162866152746184,-0.011495540632571181,0.016023639885469888,0.19124940086308218,5.017467585850725
3,37,0.605085945860891,0.6,6.051258500847313,0.49874868540136075,25.027906806794405,0.012718220590798085,0.00978567297446043,0.016047196968919077,0.20110749618409907,5.218575082034825
3,38,0.5469566731405934,0.6,6.074790619430036,0.4808812058189236,25.028868569206043,-0.026957369947943767,0.005009922321799466,0.027418955417389014,0.1879019710293277,5.406477053064153
3,39,0.5529367816783989,0.6,6.0894011126853655,0.46130415541949543,25.02979117751688,-0.0015261165782132144,0.012016978556675065,0.012113496829647727,0.18230928357644569,5.588786336640599
3,40,0.5627956342843898,0.6,6.125323891306249,0.4037731792200301,25.030598723875322,0.006669523493853114,0.007159388934369917,0.009784650916033595,0.18355269923531084,5.77233903587591
3,41,0.5355675147138432,0.6,6.070785629049781,0.525628345269663,25.03164998056586,-0.028374108560810005,0.006964386733914393,0.029216309130349685,0.15325130070950357,5.9255903365854135
3,42,0.5922615329454994,0.6,6.102866560416312,0.411938099314325,25.032473856764486,-0.00398610245624534,-0.00998191728231864,0.010748380595361177,0.15930842537540438,6.084898761960818
3,43,0.5153873706550828,0.6,6.1558778337454525,0.38224581467157476,25.03323834839383,-0.017911541953896104,-0.0039039269398550808,0.018332047913910396,0.14764715732835498,6.232545919289173
3,44,0.6040531242787237,0.6,6.1337246784831105,0.3627094311006261,25.033963767256033,0.00400343224074731,0.0033601574266199216,0.0052266746252205174,0.15200801690458401,6.384553936193757
3,45,0.5836669908237032,0.6,6.097562495216226,0.43022219461076816,25.034824211645255,0.011378825004793593,-0.0032473026508296,0.011833115946182598,0.16367213060772176,6.548226066801479
3,46,0.5725418998150216,0.6,6.126259166477854,0.391786233064184,25.035607784111384,0.001331357986785991,-0.007379317802412299,0.007498456195643069,0.16001621901138843,6.708242285812867
3,47,0.5668193636464849,0.6,6.118663490092572,0.4084902295515388,25.036424764570487,0.0034413839811105497,0.009076987979878987,0.009707462824668035,0.14997724518825178,6.858219531001119
3,48,0.6286195202632409,0.6,5.997266499686906,0.5545942073186441,25.037533952985125,0.024153005825118264,0.004760313834381145,0.024617641604954714,0.1797852290771166,7.038004760078235
3,49,0.6070920907636871,0.6,6.04484260568234,0.5006191041580227,25.038535191193443,-0.03235264020757418,-0.001142255514501802,0.03237279839712896,0.15822602052979237,7.196230780608027
3,50,0.5762669848972225,0.6,6.128672157994777,0.3801817118734519,25.03929555461719,-0.0066483619804121735,0.005483281304979799,0.008617835626892117,0.16053581615348847,7.356766596761515
3,51,0.5362268630301125,0.6,6.133852402766486,0.39554690387058805,25.040086648424932,-0.005619311649699534,0.012572196508289942,0.013770867382249629,0.16346890907629757,7.520235505837813
3,52,0.560470110732269,0.6,6.132191187418048,0.3902767486760854,25.040867201922286,-0.012123403112777426,-0.0009165940810038319,0.012158003443996578,0.1502931845929274,7.67052869043074
3,53,0.523091859088454,0.6,6.15407227847055,0.37172762596889636,25.041610657174225,0.0016696216482051625,0.017944488052250736,0.018021994559579823,0.15357654160391035,7.8241052320346505
3,54,0.6186469515469216,0.6,6.094571099369015,0.4222155110176755,25.04245508819626,-0.013635997523189457,0.0015364446081566638,0.013722284448529798,0.15649398446381768,7.980599216498468
3,55,0.6605439179287602,0.6,6.073526969299779,0.42035945729340046,25.043295807110848,-0.016316092844795474,-0.011582031851840289,0.020008956682871525,0.14299985038592655,8.123599066884394
3,56,0.501231248572283,0.6,6.166856801256134,0.3632596461029552,25.044022326403056,-0.0033213694464095216,-0.0005704286766218815,0.003369997607514771,0.13050626551835848,8.254105332402752
3,57,0.6312591471543888,0.6,6.119641758803345,0.37049079176610733,25.04476330798659,0.012084091696736889,-0.0008645528271104714,0.012114979311827574,0.14422290670342716,8.39832823910618
3,58,0.5840759327605132,0.6,6.137781808814019,0.36361413044179874,25.045490536247474,0.005703635664192281,0.005882249291179367,0.00819343130278312,0.14349599691422651,8.541824236020407
3,59,0.6057334293065271,0.6,6.103774337819854,0.4083665191789389,25.046307269285833,-0.0006532547605761913,0.001501152270061292,0.001637131613562461,0.14927226768717922,8.691096503707586
3,60,0.6583773816766321,0.6,6.04632888191539,0.46833210261973396,25.04724393349107,0.01746272694639896,0.0009600420496977001,0.017489096979023136,0.16822265615591497,8.859319159863501
3,61,0.5483373010490428,0.6,6.13114223993682,0.3931139562227467,25.048030161403517,-0.009391139493579732,0.0008496813703770767,0.00942949942568739,0.16894925750339013,9.028268417366892
3,62,0.5154645344116146,0.6,6.14414441563436,0.4053154122204537,25.048840792227956,-0.015059887363527485,0.012380069359584397,0.019495289809342547,0.15398993485855278,9.182258352225444
3,63,0.5756631946773569,0.6,6.137419413422782,0.37508276460950857,25.049590957757175,-0.002675817318428966,-0.025412388076882248,0.025552875886906967,0.14618494907184604,9.328443301297291
3,64,0.644600949096677,0.6,6.120395445193671,0.37080920824232055,25.05033257617366,0.00296626692584058,0.005580818806186659,0.006320148576008511,0.13988563298801565,9.468328934285307
3,65,0.5975159658743733,0.6,6.144500374668711,0.35053950769277936,25.051033655189045,0.0016532521347275234,0.010329891945199456,0.010461353173489446,0.13272757415174685,9.601056508437054
3,66,0.671925293559324,0.6,6.10805109596028,0.3572338149892904,25.051748122819024,-0.00020416622381829157,-0.001498915917331393,0.0015127566804273688,0.12821569657847215,9.729272205015526
3,67,0.7069625218546023,0.6,6.136247186729397,0.30464621135603503,25.052357415241737,0.007723750213370363,-0.0010039350340136602,0.007788722803583315,0.12333375834142102,9.852605963356947
3,68,0.5566183817406667,0.6,6.200946232350897,0.27886301022357785,25.052915141262183,-0.016311422027945312,-0.010634329381546069,0.01947181167659942,0.12499689435714469,9.977602857714091
3,69,0.6006024827088764,0.6,6.178990344940405,0.2925942901041073,25.05350032984239,0.008790353007445127,0.005275973827743159,0.010252131769857935,0.12370127449598878,10.10130413221008
3,70,0.6724260905603645,0.6,6.16616155720052,0.2798382277889232,25.054060006297966,-0.0022268475047639105,-0.004468362536626212,0.004992505740427135,0.12209186000580388,10.223395992215885
3,71,0.6917520524487869,0.6,6.120733677739315,0.33834888128281493,25.05473670406053,0.005518019266382679,-0.002163439782957261,0.005926972947352856,0.12604511670272356,10.349441108918608
3,72,0.6158189897941097,0.6,6.1179805781876055,0.3752258211384111,25.055487155702806,0.0011353239985355118,0.006563907508593024,0.006661369405986621,0.1358690661699186,10.485310175088527
3,73,0.6024269958062872,0.6,6.170117171638369,0.305333498024502,25.056097822698856,-0.001390290948901674,-0.006081012569516899,0.006237918145761487,0.13496222145881512,10.620272396547342
3,74,0.6732151817920246,0.6,6.069887174249548,0.4184578586030288,25.05693473841606,0.010593604314796763,0.011615338035591172,0.01572070386654273,0.14350495952129333,10.763777356068635
3,75,0.6867472209215842,0.6,6.0593981105118475,0.4281859072994249,25.05779111023066,0.005206668882804287,-0.009467404109571895,0.010804681458937197,0.15706355530601246,10.920840911374647
3,76,0.5399315568076897,0.6,6.112646801805952,0.44235015499342195,25.058675810540645,0.016968334277172842,0.0030726478050559104,0.017244289857103242,0.17084070558232248,11.09168161695697
3,77,0.5949709209079086,0.6,6.112775925504975,0.40255855928466394,25.059480927659216,-0.014642196494088159,-0.008215345170195275,0.01678945545385372,0.1553723987666723,11.247054015723643
3,78,0.6608275289465592,0.6,6.10425604847118,0.37766798260551787,25.060236263624425,-0.014650779453346143,0.005887424068075064,0.015789461699118785,0.158024379928827,11.40507839565247
3,79,0.647933317659781,0.6,6.072776620931925,0.4285285693684966,25.061093320763163,0.02775244555241141,0.006620742889997064,0.0285312542758815,0.16406517598805676,11.569143571640527
3,80,0.6176753759220984,0.6,6.107458353520931,0.40710863887778515,25.06190753804092,0.012435656446375752,-0.0008561495423049708,0.012465092991673822,0.1666644704765407,11.735808042117068
3,81,0.5258238264670605,0.6,6.132690371391326,0.40251105189479913,25.06271256014471,-0.012190518032418728,0.014587147496759935,0.01901035512532461,0.17052133774273184,11.9063293798598
3,82,0.6025301678679196,0.6,6.017597425205144,0.557762222699284,25.06382808459011,0.016008528887605046,0.001712435451522125,0.016099858145987345,0.19300040189416448,12.099329781753964
3,83,0.6639799312753731,0.6,6.048081060518852,0.45126494819579904,25.0647306144865,0.007539002899154074,-0.00675593827630063,0.010123204369498694,0.1920894487633102,12.291419230517274
3,84,0.5927114322739913,0.6,6.045693550154679,0.5084480164148466,25.06574751051933,-0.028066263005303457,0.007293463462804262,0.028998443550751585,0.1809468901327478,12.472366120650022
3,85,0.6482900234496787,0.6,6.055438218628969,0.45419529592148195,25.066655901111172,-0.001461888150904058,-0.00942093588873116,0.009533685016054205,0.18784356265665997,12.660209683306682
3,86,0.5940514597654277,0.6,6.108867717896468,0.41010876868096785,25.067476118648536,-0.010212808252014987,-0.013682450953383907,0.01707369076925612,0.1860270788763769,12.846236762183059
3,87,0.6280958438237099,0.6,6.031809524049721,0.5083193697470525,25.06849275738803,0.021003781827143353,-0.002563168936896428,0.021159600328014425,0.2010371669782973,13.047273929161356
3,88,0.6563430609198586,0.6,6.053626068591744,0.4615841968529463,25.069415925781733,0.027388642722494107,0.016959695330141692,0.032214422482355,0.20354139355748013,13.250815322718836
3,89,0.5809004206398674,0.6,6.059178242368131,0.49655971324391424,25.070409045208223,0.003727722779606319,-0.0009439250641118496,0.003845375358564417,0.20260532059326666,13.453420643312102
3,90,0.5476584827338533,0.6,6.081929428705863,0.4735193434482442,25.071356083895118,-0.006050346492356903,-0.016295836027484384,0.017382777813463344,0.19051360669648293,13.643934250008584
3,91,0.5127190139623541,0.6,6.1127114854344065,0.46103965667381386,25.072278163208466,-0.02139729331701846,0.014192550459109513,0.02567630522152462,0.16825048157781028,13.812184731586395
3,92,0.5616368504159994,0.6,6.108007265021545,0.4322881030580497,25.073142739414582,0.007099968351257414,0.0002429091413778039,0.0071041224257343575,0.1787672309050265,13.990951962491422
3,93,0.5832090712865625,0.6,6.069858766394275,0.48026491197967686,25.07410326923854,-0.005050249038178616,-0.008022531717308108,0.009479769538487663,0.19168862802080405,14.182640590512227
3,94,0.562873260592647,0.6,6.091226416185777,0.4646670069352618,25.075032603252414,-0.007389483881108027,0.01801213990808535,0.01946899216953965,0.1924519007510606,14.375092491263288
3,95,0.6176489367382818,0.6,6.0936657044163125,0.4211269932775806,25.07587485723897,0.0009833895844716337,0.00886864686582761,0.00892300130592847,0.19335911535235067,14.568451606615639
3,96,0.6348169860624909,0.6,6.025264323135634,0.5126360406723806,25.076900129320315,0.010152686598774744,0.018593463338516282,0.021184756880684028,0.2030601433917371,14.771511750007376
3,97,0.6262957572134484,0.6,6.032839205715753,0.5091315389139133,25.077918392398143,-0.042944877309435574,0.0111492455949028,0.044368549271504625,0.1844909096742951,14.95600265968167
3,98,0.6249455928138027,0.6,6.112964168690252,0.3830226143582518,25.07868443762686,-0.01622608484865449,3.222216443155699e-05,0.016226116842412278,0.18417930358022092,15.140181963261892
3,99,0.6006197203569578,0.6,6.086404623434908,0.44021690703097466,25.07956487144092,-0.015700091817864664,0.0027279638953026414,0.015935327737560206,0.17318663674418353,15.313368600006076
4,0,0.508454314869691,0.6,6.216823266945522,0.26968014700577164,25.000539360294013,0.02789275541668977,-0.006378405564735843,0.02861275698501509,0.03217977607254806,0.03217977607254806
4,1,0.6594114524156585,0.6,6.2582451164177435,0.14081021329989254,25.00082098072061,-0.010956323519599529,-0.0027739139174310984,0.011302018558091636,0.03632006861363152,0.06849984468617958
4,2,0.6334144614424778,0.6,6.143700136382843,0.31842105480434196,25.00145782283022,0.05626117552993069,-0.007474731780653794,0.056755541466912175,0.06637550568337983,0.1348753503695594
4,3,0.6758402435966068,0.6,6.216201975758776,0.19718687105247967,25.001852196572322,0.012612703430353773,-0.0029832316899583372,0.012960708280724072,0.07073448679285846,0.20560983716241785
4,4,0.5984046525448116,0.6,6.220638888674127,0.21633043081711753,25.002284857433956,0.02300764168103412,0.0009244773546980858,0.02302620754927324,0.07843280496360433,0.28404264212602215
4,5,0.6165695486501086,0.6,6.168669555739402,0.2920189879310504,25.00286889540982,0.011464994745661768,-0.009592553926405883,0.014948685405381199,0.09359944135440312,0.3776420834804253
4,6,0.5935589402424393,0.6,6.121284867815978,0.37451343763986905,25.0036179222851,0.024959792772570093,0.004870153259803794,0.025430486586450127,0.11362279325172459,0.49126487673214986
4,7,0.6833107373792823,0.6,6.126641034974829,0.32677300070587084,25.00427146828651,0.0015343532475037653,-0.013171747888057944,0.013260813787799159,0.11786921989812998,0.6091340966302798
4,8,0.5921380289383705,0.6,6.100216341546535,0.4185605717580045,25.005108589430026,0.018580345699843744,0.0010571999546715495,0.01861039811690925,0.13197932402911694,0.7411134206593968
4,9,0.5303101260080564,0.6,6.148636135468124,0.38300562619620815,25.005874600682418,0.005792982323988436,-0.0010800383678095794,0.005892802990257119,0.14305901294246026,0.884172433601857
4,10,0.6263521510729638,0.6,6.133215350798626,0.33995022452928336,25.006554501131475,0.010058201301392802,-0.0029104146327302576,0.010470813089428646,0.14534444460617352,1.0295168782080306
4,11,0.5956819937874825,0.6,6.089392235802341,0.4323341905163535,25.00741916951251,0.02220351302802366,-0.002484193067050382,0.022342050174055147,0.16035127592882387,1.1898681541368545
4,12,0.576817020369786,0.6,6.150036465118008,0.3424614431146783,25.00810409239874,0.000498344376393803,-0.004917301080135277,0.004942488950941912,0.1610074124764276,1.3508755666132821
4,13,0.5761269209975675,0.6,6.055952760591438,0.5049858019294295,25.0091140640026,0.022104054996846784,0.01714831608676043,0.027975953816001944,0.1784485670377725,1.5293241336510546
4,14,0.6931143455950152,0.6,6.06690921971408,0.41684406799596235,25.00994775213859,-0.006145838031186285,0.007825788808419774,0.009950592725037233,0.17628184999249463,1.705605983643549
4,15,0.620607269108471,0.6,6.060205035291441,0.4710958902467454,25.010889943919082,-0.009352285443086755,-0.002554707861877694,0.009694935547414027,0.16542138248608193,1.871027366129631
4,16,0.5975751662467927,0.6,6.045118872625399,0.5180923342907342,25.011926128587664,0.02401722356162118,-0.001181707843665918,0.02404627748814093,0.18973716726406678,2.060764533393698
4,17,0.6033542927735852,0.6,6.092692078167937,0.4301174491899361,25.012786363486043,0.004285398427665276,-0.002722761011450806,0.005077210573662731,0.19333657341692545,2.2541011068106234
4,18,0.5208750739168314,0.6,6.1160869226631895,0.43177993614455185,25.013649923358333,0.00016980700005494114,-0.0032775491729641676,0.0032819450023523792,0.19310566585150263,2.447206772662126
4,19,0.5268455042925453,0.6,6.0364662519273535,0.5720537667444086,25.01479403089182,0.02384336198155873,0.0028005786003768014,0.024007272878870035,0.2123531787847208,2.6595599514468464
4,20,0.6062117756621535,0.6,6.0117575610743215,0.5585695379388522,25.015911169967698,0.011712066846815208,0.012165777137429404,0.016887233141692215,0.2290232005769881,2.8885831520238345
4,21,0.5715615880375559,0.6,6.037718111516264,0.5556090777708577,25.01702238812324,0.0033038479017560556,-0.010636955910255479,0.011138233342620221,0.22673405866483531,3.1153172106886697
4,22,0.5872047742159066,0.6,6.049225389236802,0.5238762523915883,25.018070140628023,-0.007658779337850167,-0.008601533849246633,0.01151708667613543,0.22374968942324422,3.3390669001119138
4,23,0.5804025261970521,0.6,6.035774621786767,0.5528193582244024,25.019175779344472,0.014777603343801437,-0.003575790319685979,0.015204073039718383,0.2339657624087751,3.573032662520689
4,24,0.6216035442029919,0.6,6.028063371162115,0.5369005653535439,25.02024958047518,-0.008892463285710207,-0.01002668587369791,0.013401877961596174,0.2349800084293364,3.8080126709500255
4,25,0.6750115703230202,0.6,5.984839800072924,0.5359692825386292,25.021321519040256,-0.015799801729565785,0.0007851402517417629,0.01581929770591903,0.22571305371904948,4.033725724669075
4,26,0.5831277186339616,0.6,6.058479874496661,0.5158686839310347,25.022353256408117,0.003523849429205902,0.015743712374755716,0.016133257393928575,0.23131975417920536,4.265045478848281
4,27,0.5453237334703489,0.6,6.028893919265821,0.572419583413238,25.023498095574944,0.0030441932327448947,0.010543249749040777,0.01097393401241953,0.2341776737053367,4.4992231525536175
4,28,0.5444215713966719,0.6,6.061096355482557,0.5238315658728796,25.02454575870669,0.0010628545726546804,0.003236257646091187,0.003406321093863089,0.2350653721452092,4.734288524698827
4,29,0.5749859668472416,0.6,6.048543563664261,0.5282615026670374,25.025602281712025,-0.010931622137851899,-0.011041239857992617,0.01553735306178303,0.23222092532715263,4.966509450025979
4,30,0.5976504865889004,0.6,6.025317506579306,0.5358061627759203,25.02667389403758,-0.013094618860446626,-0.015200392851920637,0.020062925657866663,0.22510781099187085,5.19161726101785
4,31,0.6470237969352147,0.6,6.001350529727327,0.5390895390076124,25.027752073115593,0.019093976038089704,-0.007399358529652597,0.02047755912196291,0.23077556692485704,5.422392827942707
4,32,0.5944225515627931,0.6,5.991797328865129,0.6035987241531138,25.0289592705639,0.028089054124776476,0.0015843384678553172,0.028133700254416385,0.24484938688958105,5.667242214832288
4,33,0.6387049723018337,0.6,5.9898268439234,0.5491912250133276,25.030057653013927,-0.011442602291439724,-0.009583744802265615,0.014925860498980113,0.23294543400858447,5.900187648840872
4,34,0.6258926436786924,0.6,6.033311314452919,0.5021216658882476,25.031061896345705,0.006933196016138026,0.00929145147768691,0.011593113367875019,0.2328427744782886,6.133030423319161
4,35,0.5824572263311154,0.6,6.046743884799307,0.5268812345162656,25.032115658814735,0.007173920114785976,-0.0060362043601909065,0.009375547604877197,0.23727022255695013,6.370300645876111
4,36,0.7130897962577395,0.6,5.936946169512057,0.5845278310932682,25.03328471447692,-0.011775853210638683,0.006635615765913815,0.013516734643816655,0.24463179605492652,6.614932441931038
4,37,0.5945832691920507,0.6,6.006548253879445,0.56914753649406,25.034423009549908,-0.0034774402355694425,0.010598062949337746,0.01115399161153005,0.2426278924651855,6.857560334396224
4,38,0.5742013310831887,0.6,6.045089039748188,0.5329700509366315,25.035488949651782,-5.959712623499637e-05,0.013660600684033315,0.013660730685657591,0.24262756939728283,7.100187903793507
4,39,0.6237068188572452,0.6,5.951556608777991,0.6545403469871764,25.036798030345757,0.027119578954179463,0.007188971655282916,0.02805624486834321,0.2579159527781452,7.358103856571652
4,40,0.6227725054433172,0.6,5.968825100379021,0.6105024268782691,25.038019035199515,-0.011551791792305945,0.0010015940809062348,0.011595131923169025,0.24396359169287207,7.602067448264524
4,41,0.6659072821873655,0.6,5.96877902123524,0.5788305890468814,25.03917669637761,-0.02372294294352507,0.003825981367234629,0.02402948512399241,0.23881548146529238,7.840882929729816
4,42,0.5994513326204852,0.6,6.008859763092148,0.5714488123133394,25.040319594002234,-0.01893338466503651,-0.006545701349975839,0.020032954376160178,0.2300648900559244,8.07094781978574
4,43,0.49439472854488414,0.6,6.082625340945484,0.5432609731496546,25.041406115948533,0.012826060182206351,-0.015569339325092607,0.020172063524028828,0.23313057498444148,8.304078394770182
4,44,0.6586466526504849,0.6,5.997859136399987,0.5469871828120684,25.042500090314157,-0.016714163039588066,0.013821818883931386,0.02168884329267317,0.2205185988726567,8.524596993642838
4,45,0.5829758815250433,0.6,5.994273267405281,0.6096045461181192,25.043719299406394,0.022200334857136024,0.0048334185178057175,0.022720404977403814,0.23733456372624734,8.761931557369085
4,46,0.5430139052992405,0.6,6.061866894527513,0.5376783849763866,25.044794656176347,0.0022880435048612136,0.0012476952104321243,0.0026061247894666995,0.2363646110947023,8.998296168463787
4,47,0.5741377710602026,0.6,6.037583413615987,0.5314728616893638,25.045857601899726,-0.017426468336791973,0.012815113403641332,0.021631202699836198,0.22660141874754616,9.224897587211332
4,48,0.5448362500713758,0.6,6.01457771026788,0.6132588016302526,25.047084119502987,0.020332104225559876,-0.0011341163064273396,0.02036370992809351,0.2470835738434197,9.471981161054751
4,49,0.5748942212397091,0.6,6.009507350242683,0.5826932033073662,25.048249505909602,0.015804969179728637,0.015427963382930518,0.022086627287053517,0.2571806577293326,9.729161818784084
4,50,0.5778084367424233,0.6,6.011984354991198,0.5770111342892595,25.049403528178182,0.013394154461783724,0.01706468247260989,0.02169347278877036,0.2554584186922731,9.984620237476356
4,51,0.6091139625780775,0.6,5.980350230299934,0.6006864889883,25.05060490115616,0.022580357677409537,0.014144150427290237,0.02664450307567327,0.26093041054421606,10.245550648020572
4,52,0.6924388042502202,0.6,5.964289055608643,0.548451178321961,25.051701803512803,-0.004035859902268296,0.014006890344430015,0.014576732908015562,0.25820075460189895,10.503751402622472
4,53,0.5579548822944771,0.6,6.015158980643221,0.6015077309829111,25.052904818974767,-0.009761116238656116,-0.01308763514238608,0.016326836308506777,0.24986411705113126,10.753615519673604
4,54,0.6079549400641417,0.6,5.9877316166447505,0.5970837211520513,25.05409898641707,-0.013483941944119927,0.006641440493586504,0.0150308157523884,0.2368529522639738,10.990468471937577
4,55,0.5217199088315188,0.6,6.064169164765647,0.5395907996783598,25.05517816801643,-0.010347923648692853,-0.005893867019785694,0.01190870237624966,0.22932078292328195,11.219789254860858
4,56,0.6132378032179648,0.6,5.9994160318577086,0.5676995596176154,25.056313567135664,0.0027259192787140035,0.005298337834749577,0.00595844104822759,0.23483651825502627,11.454625773115884
4,57,0.6752310973397477,0.6,5.9828841315242745,0.5327866517424412,25.05737914043915,-0.008002042410797463,0.008978641732031214,0.012026998382654492,0.2279589134044217,11.682584686520306
4,58,0.6563348639243427,0.6,6.014178961963322,0.5130265231235326,25.058405193485395,-0.012373169929951983,0.01065926818716889,0.016331421628304706,0.23211377989699816,11.914698466417304
4,59,0.6320173793219689,0.6,6.035436376365005,0.49207424409692896,25.05938934197359,-0.006304341175432422,-0.014899330082214923,0.01617821852229247,0.23354136382380014,12.148239830241105
4,60,0.6382376797414978,0.6,6.019156096088832,0.5276969813315973,25.06044473593625,-0.007052483573996322,-0.009932572174375523,0.01218168767292393,0.22544060222153167,12.373680432462637
4,61,0.6210262839447137,0.6,6.050623332014613,0.4889608913419189,25.061422657718936,0.0006324315244268654,0.022856011815280665,0.02286475990981183,0.22355032593983729,12.597230758402475
4,62,0.5794540113986703,0.6,6.056199742620707,0.51665845332597,25.06245597462559,0.016345911578130513,-0.010942409530350914,0.019670413103185597,0.22895456760352836,12.826185326006003
4,63,0.658381907751121,0.6,5.997308900586443,0.5316608670601295,25.063519296359708,-0.014641207759771128,-0.009325702298970132,0.017358965638361035,0.22858273669802714,13.05476806270403
4,64,0.5997559050318049,0.6,6.009833995918638,0.5591254056386453,25.064637547170985,-0.019338902511085724,0.001416671648715303,0.019390722237543175,0.21959989150078638,13.274367954204816
4,65,0.5667985694171837,0.6,6.042251222398759,0.5295818525306442,25.065696710876047,-0.0043611524993979935,0.010700725120709772,0.011555309136150124,0.22152854607730108,13.495896500282118
4,66,0.6463403737270146,0.6,6.00353046312912,0.5408395804073081,25.066778390036863,-0.012975837118730297,-0.005095951329463574,0.013940626559953486,0.2171648644925572,13.713061364774676
4,67,0.5764228492740955,0.6,6.021464827326441,0.5746736959597343,25.067927737428782,0.020807986868678754,-0.008881882110855133,0.02262432645092967,0.23043419452561295,13.943495559300288
4,68,0.6487561997694297,0.6,6.019139983515898,0.5231309317170472,25.068973999292215,-0.009031443856152647,-0.0030000357693779523,0.00951667971218873,0.22917503109101164,14.1726705903913
4,69,0.5249753986527126,0.6,6.09047846116247,0.4924331821483802,25.069958865656513,-0.013462242141198944,-0.001987150616707987,0.013608112692131693,0.2201919373339681,14.392862527725269
4,70,0.5725027017848089,0.6,6.012988638659329,0.5843378644266207,25.071127541385366,0.010212737433184446,0.005670582125201824,0.011681417187902556,0.23637138332253566,14.629233911047805
4,71,0.6146313089825239,0.6,5.984114069121091,0.5841815794756868,25.072295904544315,0.021280305072457158,-0.00575255994806118,0.022044122344354822,0.24661665072770905,14.875850561775515
4,72,0.6513588774320214,0.6,5.94526805320499,0.6288912612599173,25.073553687066834,-0.01731868587885017,0.0028791543221527837,0.017556378048477293,0.22746367838218362,15.1033142401577
4,73,0.6692929105883947,0.6,6.001038673496603,0.5260095477428547,25.07460570616232,0.01097997982399002,0.008840271974263262,0.01409646641943194,0.22287355779085205,15.32618779794855
4,74,0.6119358250848206,0.6,6.027337378299441,0.5315112054351044,25.07566872857319,-0.019549283369554672,-0.004932143871104978,0.020161858134319498,0.20439080115789962,15.53057859910645
4,75,0.6157569514560466,0.6,6.01615686083533,0.5486620983682294,25.076766052769926,-0.016276584490761782,-0.009375093861087293,0.018783492422579557,0.21390472411903258,15.744483323225483
4,76,0.5959712769616372,0.6,6.074747578845835,0.46984730917042267,25.07770574738827,0.004463628477800531,-0.006222254717550558,0.0076577041571160255,0.21330166233654924,15.957784985562032
4,77,0.6765006904543014,0.6,5.997986776106139,0.5254161485007666,25.07875657968527,-0.014442337959997468,-0.011758349879382289,0.01862363867875323,0.20074381519785245,16.158528800759886
4,78,0.6006245411103545,0.6,6.049857584395652,0.4990174495767037,25.079754614584424,0.010993432689144097,0.009244340219585095,0.01436361334714147,0.20754200680273513,16.366070807562622
4,79,0.6178109336370026,0.6,6.02343100370272,0.5428103365338716,25.08084023525749,0.013923049525863228,-0.0054369402968277684,0.014946960490043112,0.21575395810730014,16.58182476566992
4,80,0.6413854166577895,0.6,6.017169434687445,0.5111668914235041,25.081862569040336,-0.006123475574338072,-0.006078874462819541,0.008628422094695793,0.20723961172922606,16.789064377399146
4,81,0.5949257358435883,0.6,6.06227690202472,0.4819610932622596,25.08282649122686,-0.009832592765784715,0.008546427287124486,0.013027712764406034,0.20118248815403422,16.990246865553182
4,82,0.5031755442912026,0.6,6.09986326250245,0.49903862694642853,25.083824568480754,0.018626076034238152,-0.005609810031317565,0.01945252366714129,0.20848851285149908,17.19873537840468
4,83,0.6061413665550798,0.6,6.055093797734946,0.4825766776618189,25.084789721836078,0.0028856010659979326,-0.0012004112209610803,0.0031253288805336435,0.1980102520942691,17.396745630498952
4,84,0.6174898993484154,0.6,6.0372569977316735,0.5067865260227717,25.085803294888123,0.025954178262691807,-0.007679485917368151,0.02706647138521458,0.20682391565925357,17.603569546158205
4,85,0.6177124029990665,0.6,6.028783305036401,0.5200402768636826,25.086843375441852,0.01425126383694006,0.014831286279738141,0.020568557889692324,0.21781142859892372,17.82138097475713
4,86,0.5693169793288517,0.6,6.074534783373796,0.4807767601453648,25.087804928962143,0.004104846434780627,-0.0011622243953775186,0.004266207894411835,0.219529459324386,18.040910434081514
4,87,0.5881060444449168,0.6,6.030834892718482,0.5513874456965719,25.088907703853536,0.0006171131792954525,-0.011951037734634757,0.011966959998709947,0.20214194487907916,18.243052378960595
4,88,0.6199322615132474,0.6,6.026542790518636,0.5251259493753452,25.089957955752286,0.013947349506029338,-0.01218683829977197,0.01852154383382027,0.21109282483398883,18.454145203794585
4,89,0.608788722755542,0.6,6.042184922329322,0.4912965794534434,25.090940548911192,0.0006193358743406506,-0.0020357067147347696,0.002127834287171237,0.21644576996335427,18.67059097375794
4,90,0.6659676062022621,0.6,5.996421748866088,0.53788748019653,25.092016323871587,0.006668125441127557,0.004883705904296575,0.008265257422383999,0.22429976163998275,18.894890735397922
4,91,0.534514025944105,0.6,6.025830151745177,0.6056573134035375,25.093227638498394,0.01434062948153527,-0.010783610908167799,0.017942684251399905,0.23552914666058147,19.130419882058504
4,92,0.67111683586099,0.6,5.9690136740255175,0.5748021536697888,25.094377242805734,0.005846121784816308,0.007776072813422404,0.009728537830658359,0.24659223369487593,19.37701211575338
4,93,0.6907926691046303,0.6,5.974885366971289,0.5345350762370964,25.09544631295821,0.0035864379937827384,-0.012217763346947718,0.01273327446830812,0.25001375681885,19.62702587257223
4,94,0.594656260393036,0.6,6.027336157464815,0.5434356695518701,25.096533184297314,-0.012342916415848466,0.013970653013137426,0.018642068856811665,0.2424847666434779,19.869510639215708
4,95,0.6443839216748927,0.6,5.924379220810893,0.6493755925996197,25.097831935482514,0.018799976919680324,-0.006285575802445898,0.019822905825050127,0.25721344025232573,20.126724079468033
4,96,0.5961741168621711,0.6,5.998907694383769,0.602183003423465,25.09903630148936,-0.010884351308815583,0.013752254204468973,0.01753834653318408,0.2506211819099749,20.377345261378007
4,97,0.5878731999487716,0.6,5.991491201507384,0.6010424856082522,25.100238386460575,-0.022915625738377677,-0.0030147231486169317,0.023113079817371898,0.24401775124813255,20.62136301262614
4,98,0.5995967657884893,0.6,6.0093395617360255,0.5640810470130171,25.1013665485546,0.00780627262470772,-0.0022482656127015147,0.00812358237211375,0.2410536491433649,20.862416661769505
4,99,0.6240443917797901,0.6,6.003481740105615,0.5612028258623979,25.102488954206326,-0.011836954194437468,-0.0022295918297037943,0.012045105409596576,0.2351858660667594,21.097602527836266
5,0,0.6091769848758857,0.6,6.191829053481316,0.2631698618858925,25.000526339723773,0.03562778766908314,0.004809698500346235,0.035950972919484465,0.03152176975588266,0.03152176975588266
5,1,0.5610914829712528,0.6,6.19925838760331,0.2735547653447861,25.001073449254463,0.013229860316358037,-0.0017245859668145705,0.013341791511910195,0.052015288394101716,0.08353705814998438
5,2,0.6318277160857803,0.6,6.12960298316299,0.3597909457362176,25.001793031145937,0.05065142030787197,0.012399405498273602,0.05214701943462658,0.08314909857929555,0.16668615672927994
5,3,0.571612021047235,0.6,6.112205385808243,0.41340976470046537,25.002619850675337,0.020485222528514452,-0.0050900583859132,0.021108127259772746,0.11422004008386367,0.2809061968131436
5,4,0.6350777733220161,0.6,6.095602714002086,0.4056354958062937,25.00343112166695,0.02117571158330942,0.0023345807966231803,0.021304014376531635,0.13395468681594078,0.41486088362908435
5,5,0.6670825879100777,0.6,6.065513702975167,0.42845809777603083,25.0042880378625,0.012652888966114467,-0.02010782268585878,0.02375752790916509,0.15167794210330968,0.566538825732394
5,6,0.5709567057834771,0.6,6.119258649976198,0.40785725784992943,25.0051037523782,0.015875464658402203,-0.006650416181586911,0.017212158885755453,0.16258447531332718,0.7291233010457212
5,7,0.6109632014064923,0.6,6.024426054650989,0.5289614243003576,25.006161675226803,0.029984149816025825,-0.004736040569636581,0.030355877856967424,0.183641543600616,0.9127648446463372
5,8,0.5460098520612627,0.6,6.063785392772804,0.540669099563896,25.00724301342593,0.02368063801729148,-0.015059113515713872,0.028063312648102447,0.19831395397581716,1.1110787986221544
5,9,0.520913364467573,0.6,6.107895192835394,0.45861300635985364,25.008160239438652,0.007139784079222262,0.001008670632573118,0.007210681877806782,0.20159207428405573,1.3126708729062102
5,10,0.570283460592608,0.6,6.07941755846333,0.464247272101032,25.009088733982853,0.012718294947753084,-0.020865100288551878,0.02443578188700679,0.2020815947612747,1.5147524676674848
5,11,0.6511574417663938,0.6,6.0256593563125564,0.5007924783632712,25.01009031893958,-0.009079334887981393,-0.0009302414444422329,0.00912686535197458,0.2059658637560476,1.7207183314235324
5,12,0.6594400884965591,0.6,6.027371623457024,0.4862832459998154,25.011062885431578,-0.017886631465543337,-0.006736641713091397,0.019113187247414492,0.19223154624872085,1.9129498776722533
5,13,0.593140692069734,0.6,6.033877328380433,0.5480173418055806,25.01215892011519,0.020146618843842196,-0.008576702045753996,0.02189625695914026,0.21098752358951622,2.1239374012617693
5,14,0.5714786877585882,0.6,6.082959399795391,0.4685557576993436,25.01309603163059,0.005775814654972842,0.007703308793272121,0.009628135919953698,0.20739538608194918,2.3313327873437184
5,15,0.5465628552476941,0.6,6.057740616525606,0.5489405127713397,25.014193912656133,0.0076411077415449065,0.009896794419358904,0.012503322250384136,0.2180639539925366,2.549396741336255
5,16,0.5681373129918627,0.6,5.999100056551709,0.6072204581483479,25.01540835357243,-0.0021447329948013107,0.005726270172050857,0.006114740362624463,0.2321160666514623,2.781512807987717
5,17,0.595179289241302,0.6,5.938585678214613,0.6794208783739898,25.016767195329177,0.03759287036560868,-0.02305166855043521,0.04409765668700076,0.25793064197001436,3.0394434499577314
5,18,0.5978234646620576,0.6,5.971162716689067,0.6286506839585104,25.018024496697095,-0.02144061507259366,0.005369879144563616,0.022102840919627272,0.23950097476265483,3.278944424720386
5,19,0.6445205943086537,0.6,6.019184848324553,0.5204464885233124,25.01906538967414,-0.003335556916384338,-0.013852775837671983,0.014248696022837603,0.2414128373958927,3.5203572621162786
5,20,0.5572125195457295,0.6,6.021925775389262,0.5910890659363387,25.020247567806013,0.00028338705775373535,0.004740078672770297,0.004748542307756575,0.24829333692574312,3.768650599042022
5,21,0.6040106830412332,0.6,5.969364728482516,0.6329054727716206,25.021513378751557,0.011743850025068208,0.0025011390688312557,0.012007235737376384,0.26073575193337317,4.029386350975395
5,22,0.6358968544459463,0.6,5.992873248140067,0.5673408737831961,25.022648060499122,-0.003704732764200515,0.010402389642495586,0.011042407125642499,0.2544430434957666,4.283829394471161
5,23,0.558554873734046,0.6,6.039990212257909,0.5548347640796368,25.02375773002728,0.015523336791942496,0.005979464913921806,0.016635143095654375,0.2571318299250438,4.540961224396205
5,24,0.5846706297474369,0.6,5.922166942078251,0.7430792267058883,25.02524388848069,0.02062174034077949,-0.0017248231710696091,0.02069374759810293,0.2833048337207678,4.824266058116973
5,25,0.6038764792507876,0.6,5.9778449689800865,0.6244773450842144,25.02649284317086,-0.006567626459289462,0.0034002459825965264,0.007395633174443068,0.2703569669265238,5.0946230250434965
5,26,0.6156327660673357,0.6,5.948500563943601,0.6600813018110709,25.027813005774483,0.015925662133347868,-0.002101888137967623,0.01606376817966691,0.28195144176538234,5.376574466808879
5,27,0.6121318117458197,0.6,5.923734952472422,0.6931524563030086,25.02919931068709,0.023178148482478615,2.3851979152351622e-05,0.023178160755175016,0.29696424145012323,5.673538708259002
5,28,0.5759220774268435,0.6,5.957065371508143,0.6911425913353232,25.030581595869762,-0.006119792396863587,-0.01874313496741068,0.01971692083940295,0.28465289983720476,5.958191608096207
5,29,0.6069109690618801,0.6,5.95809831064412,0.6513398761013196,25.031884275621966,-0.020127581520784865,-0.0006149476428488614,0.020136973419044028,0.27718874508604946,6.235380353182257
5,30,0.5985691144761843,0.6,5.99582319796269,0.600153973012412,25.03308458356799,-0.009160520418549256,-0.00032996480264666097,0.009166461209738658,0.26557206038848247,6.500952413570739
5,31,0.6209767744593832,0.6,5.966440115758278,0.6377983104903386,25.034360180188973,-0.002754206374371241,-0.020051254266521483,0.02023952693155952,0.2533947109313416,6.754347124502081
5,32,0.6222181734680747,0.6,5.966208551945102,0.614335897077193,25.035588851983128,0.011270401205798685,0.003975652156174661,0.011951056581179955,0.2656057366407663,7.019952861142847
5,33,0.579105605532733,0.6,6.014873100787007,0.578565005412756,25.036745981993953,-0.005045393585103517,-0.021936833516946603,0.02250956821395816,0.2588166125686475,7.2787694737114945
5,34,0.6417361023715619,0.6,5.991839035032099,0.5662473958459392,25.037878476785643,-0.008609747379743113,-0.010928966063260302,0.013912945380288417,0.2611635774786295,7.539933051190124
5,35,0.6425462144520744,0.6,5.9811110943468115,0.585347685097043,25.03904917215584,0.015072011471731778,-0.008814470664684639,0.017460252658612944,0.26173711369674907,7.801670164886873
5,36,0.6624237999531445,0.6,5.97577494862523,0.5675290154622417,25.040184230186764,0.008711419756850232,0.020118642631265615,0.02192369985893391,0.2631125847713056,8.064782749658178
5,37,0.5585932446858424,0.6,6.005563514685642,0.6188059318991954,25.04142184205056,0.0007362813823167053,0.008732730483007036,0.00876371450714744,0.25782723125786167,8.32260998091604
5,38,0.5929572750584371,0.6,5.9030461013312365,0.7429185682644827,25.04290767918709,0.02701148390675781,0.0102416493277307,0.028887915186064272,0.2817855076144945,8.604395488530534
5,39,0.5958709449951509,0.6,5.975074271921888,0.627845420213406,25.044163370027515,0.0069149404294023414,-0.0166184836721825,0.017999733350935493,0.28605306046633977,8.890448548996874
5,40,0.5869231763093801,0.6,5.949497481926505,0.6823326447287074,25.045528035316973,-0.011156782531640881,-0.0001932279197126341,0.011158455694552162,0.2929556405607331,9.183404189557606
5,41,0.6416025453881963,0.6,5.8914807275825405,0.6978898051570557,25.046923814927286,0.014451842855554418,0.0037287600885243756,0.014925126924733726,0.30426722649808147,9.487671416055688
5,42,0.6336953360568631,0.6,5.890103789586579,0.7164827381564157,25.048356780403598,0.01662460302240001,0.0014049590743947591,0.01668386452993178,0.312703435794488,9.800374851850176
5,43,0.6039477637420707,0.6,5.913481798723602,0.7206983170696537,25.049798177037736,0.023798975464909583,0.004146742666092209,0.02415753935975595,0.317931388561839,10.118306240412014
5,44,0.572095756977676,0.6,5.931933184380211,0.7042082200204568,25.051206593477776,0.003421830784375637,0.018209392740896755,0.018528111342204424,0.3148523742024915,10.433158614614506
5,45,0.6099087137506691,0.6,5.902872863036832,0.7366495716942157,25.052679892621164,0.0014155640655819472,-0.007200014312908092,0.007337848985216872,0.3055643380983417,10.738722952712848
5,46,0.6183772217386407,0.6,5.9005425843429515,0.7199238677979505,25.05411974035676,0.018488558982869566,-0.0034087441056947078,0.018800168872676524,0.31743284341669226,11.056155796129541
5,47,0.6287583794603754,0.6,5.895497102623929,0.7313641162089717,25.05558246858918,-0.02037537948207894,0.0007077407590065137,0.020387667498286372,0.30048981447916434,11.356645610608705
5,48,0.6087162457557191,0.6,5.943146468902047,0.671969526380904,25.056926407641942,-0.030037591666740252,0.0009725087697778614,0.03005333070468427,0.2963861084598412,11.653031719068547
5,49,0.5874128594414038,0.6,5.961213671343519,0.6702902968072182,25.058266988235555,0.01754266477361324,0.0010481160807228166,0.017573947612248095,0.30088663431495943,11.953918353383507
5,50,0.6478878112860401,0.6,5.919717206305282,0.6637432910887132,25.059594474817732,-0.020799723361001415,0.0027623985201997376,0.020982357767386148,0.28165996383676367,12.235578317220272
5,51,0.5884158412888674,0.6,5.993993676205514,0.6118454710711567,25.060818165759876,-0.006984956964052915,-0.000384766582389533,0.006995546376988365,0.2772415082275156,12.512819825447787
5,52,0.6275333377800054,0.6,5.931838684268789,0.6588028362320596,25.06213577143234,-0.005986467845915515,-0.005069066148368307,0.007844311881020149,0.28356050083805395,12.79638032628584
5,53,0.6366582922481151,0.6,5.910187576983384,0.6964174396822737,25.063528606311706,0.010625716863037434,-0.004939267070859207,0.011717602914022653,0.29332778664766684,13.089708112933508
5,54,0.5581732037329289,0.6,5.959588141216086,0.6733512315103874,25.064875308774727,-0.017358607193317492,0.022542836988049625,0.028451726540961834,0.27993041143186387,13.36963852436537
5,55,0.6150207610247083,0.6,5.929541843571826,0.6761907550612591,25.06622769028485,0.007900442085494917,0.01602863629377136,0.017869923519261737,0.2886637374743584,13.65830226183973
5,56,0.560888105305436,0.6,5.98328917877334,0.6504109341238947,25.0675285121531,0.022762982971652954,-0.005666030246377041,0.02345756365270319,0.2944532556358719,13.952755517475602
5,57,0.5810876684760234,0.6,5.9671467083404695,0.6708330522258934,25.06887017825755,-0.007886065465937963,-0.009880966879686112,0.012642133325135961,0.2849752725032458,14.237730789978848
5,58,0.6291562382576052,0.6,5.977594942620232,0.5902377110473176,25.070050653679647,0.0003390869372313634,-0.003394543214647791,0.0034114371732617776,0.28142433803394235,14.51915512801279
5,59,0.5665430908262058,0.6,5.996656868063383,0.6139393967006869,25.07127853247305,0.009663254788291633,0.019608808125139106,0.021860554640538345,0.2827121136807707,14.80186724169356
5,60,0.6285969819634539,0.6,5.94922708221703,0.6500791915020564,25.07257869085605,-0.004809209066577735,-0.009538044202725639,0.010681890238118049,0.28916879887291297,15.091036040566474
5,61,0.6408351039674456,0.6,5.948432825084362,0.6344514142134001,25.07384759368448,0.0004614612198842998,-0.006970730723601832,0.006985988353728027,0.27860743444691705,15.36964347501339
5,62,0.5873652423171282,0.6,5.960879575158129,0.6518861815063552,25.075151366047493,-0.01049142033561562,0.010104275531255088,0.0145659288982917,0.28282003146268225,15.652463506476073
5,63,0.635220669993383,0.6,5.923484431404191,0.6739377176296467,25.07649924148275,0.012969786851183794,0.0031403384364714557,0.013344553063355852,0.28949982243929784,15.94196332891537
5,64,0.6549944201038603,0.6,5.918380062046871,0.6684454983159225,25.077836132479383,0.004410345028864058,0.015723303175352248,0.016330137966890174,0.28309960802729117,16.225062936942663
5,65,0.5666074410325144,0.6,6.005028448942736,0.6014152638390526,25.07903896300706,-0.0012949275907936596,-0.0031746221716007195,0.003428565793129474,0.28136472532205764,16.50642766226472
5,66,0.6493803849154409,0.6,5.937787071644745,0.640621016706823,25.080320205040476,-0.01682650313090396,-0.017317313464679265,0.024145818545832788,0.27420753307572104,16.78063519534044
5,67,0.5896204972138878,0.6,5.988581723177459,0.6215949479393414,25.081563394936353,-0.021458231892379172,-0.010051444309566716,0.023695722159399146,0.27628570518024603,17.056920900520687
5,68,0.5951557431624546,0.6,5.971464604104542,0.657017142948255,25.08287742922225,-0.001811441802134273,0.0027441699528200866,0.0032881286672635027,0.27972365760725176,17.33664455812794
5,69,0.6170668691030264,0.6,5.958328190235573,0.6282764923312784,25.084133982206914,-0.012906565048274882,2.7175398906808908e-05,0.012906593657803618,0.2707515837708335,17.607396141898775
5,70,0.5920756154602337,0.6,5.978159160821802,0.624401014209892,25.085382784235335,-0.0020788171472379794,-0.0030713172015868406,0.003708701940627458,0.273898552038915,17.88129469393769
5,71,0.584513294240834,0.6,5.999356180791493,0.6132572050365531,25.08660929864541,-0.00985725421776533,0.004693722253387501,0.010917714472617307,0.2720183254205538,18.153313019358244
5,72,0.5644012922279164,0.6,5.990685826393757,0.6349460320801057,25.08787919070957,-0.0004222684853934077,-0.011385678703154767,0.011393506492964686,0.2608696964625717,18.414182715820814
5,73,0.5608151121694737,0.6,6.020078128989442,0.5839434635037903,25.08904707763658,-0.009508953486261282,-0.009916283583780206,0.013738736350837708,0.25589627398539816,18.670078989806214
5,74,0.5847860919447987,0.6,5.984933162915939,0.63180073210989,25.0903106791008,0.004369438296649758,-0.005633093592639145,0.007129076689983194,0.2623354570312846,18.932414446837498
5,75,0.6143422973166816,0.6,5.957844783219333,0.6478050867771331,25.091606289274353,0.008561038944307944,-0.008377762593852058,0.011978242520708287,0.27287437049231983,19.20528881732982
5,76,0.6193720609375615,0.6,5.92126284864991,0.6799942741218609,25.092966277822597,0.012758566662346347,0.02337409661478276,0.0266294839573495,0.2846788183963975,19.489967635726217
5,77,0.5502590373412739,0.6,6.008583170010507,0.6198204232363891,25.094205918669072,-0.01688075650758172,-0.01572796452548173,0.02307225191399995,0.2822827305212957,19.772250366247512
5,78,0.5766691999846028,0.6,5.930825842955937,0.7261611186878119,25.09565824090645,0.006771246425917254,-0.0021716311572416696,0.007110960557027438,0.2963210972070409,20.068571463454553
5,79,0.5698029935130539,0.6,5.97844496510819,0.6379733884713856,25.09693418768339,-0.0015993851927125627,-0.002040078724765029,0.0025922874450776305,0.2980492996600806,20.366620763114636
5,80,0.5780446374958934,0.6,5.985677067374395,0.62213387651305,25.09817845543642,0.006541951495481969,-0.0034198227768405228,0.007381891166512548,0.29133417156231883,20.657954934676955
5,81,0.5618593649317953,0.6,5.9821849022635005,0.6481398211818475,25.099474735078783,0.0056003639077536775,0.014403036410176227,0.015453528196891872,0.2867871585217747,20.94474209319873
5,82,0.5799591991374814,0.6,5.935048200833808,0.7346745326440686,25.10094408414407,0.027267775448538395,0.002080695296299638,0.027347045010895726,0.2980116707761567,21.242753763974886
5,83,0.6386690968542714,0.6,5.955710125369094,0.6130586870674504,25.102170201518206,-0.007910756945743315,-0.001527944634020866,0.008056965325683067,0.29391826470281907,21.536672028677703
5,84,0.6022130343658928,0.6,5.966923973893593,0.6341192712951202,25.103438440060796,-0.017474971788268068,-0.007421521616503846,0.018985616189763205,0.2845188333300497,21.821190862007754
5,85,0.639583048982403,0.6,5.9520734196791185,0.6346675396349601,25.104707775140067,-0.005443481931277827,-0.009723179180265173,0.01114323601597356,0.27666538407832064,22.097856246086074
5,86,0.5790078652420241,0.6,6.021560503085213,0.5811381046971373,25.105870051349463,0.012049003605023707,-0.011446926312425975,0.016619585129478545,0.276194367855814,22.37405061394189
5,87,0.5713306661541341,0.6,5.998460718125402,0.6046325733214677,25.107079316496105,-0.005291023922853328,-0.004132170283518081,0.006713401924821433,0.27766226087297086,22.651712874814862
5,88,0.6168236991330602,0.6,5.956081222463133,0.6455737061368896,25.10837046390838,0.01198742217199853,-0.0021321523687182105,0.012175564219088683,0.281428919476998,22.93314179429186
5,89,0.5761876569764988,0.6,5.989095068258402,0.6212324520743805,25.109612928812528,-0.027725766503180323,0.006129523681830006,0.028395231796113075,0.2708294462006422,23.203971240492503
5,90,0.5685901446268509,0.6,6.0177717466983225,0.5930277548762176,25.11079898432228,0.005600053098299761,-0.012743193677344168,0.013919395813112046,0.27504204678604016,23.479013287278544
5,91,0.6585884805429111,0.6,5.938606539894421,0.6285252538576221,25.112056034829994,-0.025635743141260214,0.001649127292546986,0.02568873191170972,0.26351453677858333,23.742527824057127
5,92,0.6341785262065985,0.6,5.973259807204833,0.5966354014832285,25.11324930563296,-0.013181170133472033,0.00795549551769407,0.015395881105658928,0.26428176857345775,24.006809592630585
5,93,0.648613137138627,0.6,5.960327899732212,0.6054359888853791,25.11446017761073,0.005484239442916362,0.003636978927133631,0.006580615319531576,0.266703974053337,24.27351356668392
5,94,0.5587022948772761,0.6,5.999987824791614,0.6247302660245103,25.11570963814278,-0.0009357497791021288,-0.000587261933689386,0.00110476433136225,0.2731599162781432,24.546673482962063
5,95,0.6020397055141777,0.6,5.981953017274343,0.6075034173364484,25.116924644977452,-0.004827200354204765,0.01945761391306327,0.020047458752906012,0.2663387451958836,24.813012228157948
5,96,0.609218799048081,0.6,5.9393340889588515,0.667652870489639,25.118259950718432,0.005293843409942949,0.008528890972688772,0.01003826475408018,0.2754143690747564,25.088426597232704
5,97,0.5945471962975036,0.6,5.96970673230886,0.6372333077130393,25.11953441733386,0.000654675131645837,0.004476832157426564,0.004524447556748125,0.2563917473849718,25.344818344617675
5,98,0.5996276794699691,0.6,6.020380026748905,0.5380146209205626,25.1206104465757,0.002406417330382365,0.0016110632224167845,0.0028959228364354847,0.2541306582111698,25.598949002828846
5,99,0.6258121291364707,0.6,5.939237305841447,0.6543556242169127,25.121919157824134,-0.004337903945078759,-0.0008059851615012545,0.004412144911184362,0.26191791171098017,25.860866914539827
6,0,0.6079051504665685,0.6,6.092768098428869,0.42490360109891134,25.000849807202197,0.03982417978006437,-0.003937337116943893,0.040018344777456145,0.05193273615950027,0.05193273615950027
6,1,0.6843752123339805,0.6,6.092906468935158,0.3774686769614482,25.00160474455612,0.03445121705489594,-0.003770512062727785,0.034656934627556556,0.0835919882892541,0.13552472444875435
6,2,0.6789669433922544,0.6,6.091628885506846,0.38129200364444527,25.00236732856341,0.021005319252737954,-0.00011555520224301364,0.02100563709850785,0.11127453945115369,0.24679926389990803
6,3,0.7104850649021449,0.6,5.9926210490578375,0.501942649742629,25.003371213862895,0.028457012558120328,-0.002346943543229201,0.02855362862629062,0.14454199222921438,0.3913412561291224
6,4,0.6063437627905401,0.6,6.04209004664266,0.5213151430591653,25.004413844149013,0.024283677753109516,0.004723278861857373,0.024738762467507034,0.17508510113200848,0.5664263572611309
6,5,0.6156860481430104,0.6,5.975424061524406,0.6014566647816091,25.005616757478577,0.035592549214167,0.005921490907817339,0.0360817629022511,0.20323964880851564,0.7696660060696465
6,6,0.669148502927684,0.6,6.031806290931702,0.48762929130886296,25.006592016061195,0.007131899764531193,0.023602285856534146,0.024656274899199027,0.21105099977695183,0.9807170058465984
6,7,0.6001757794898317,0.6,5.981698486737113,0.6240449383816513,25.00784010593796,0.01078972420256955,0.02160013108370735,0.024145057697194588,0.23150135582996206,1.2122183616765605
6,8,0.6005236490045038,0.6,6.006933635114408,0.5818626415522662,25.00900383122106,0.0017712986330557165,0.005668693724410713,0.005938988751348032,0.24334820322084755,1.455566564897408
6,9,0.6251771949549969,0.6,6.005364690129364,0.5580761024925587,25.010119983426048,-0.006589989215893305,0.001926161100346126,0.006865715873095584,0.24784894132289803,1.7034155062203062
6,10,0.6295857132949797,0.6,5.975797426140021,0.5832201696748155,25.011286423765398,-0.008557032949643696,0.00896167193749268,0.012390898951106481,0.2556298685497823,1.9590453747700884
6,11,0.5498280049807107,0.6,6.001218099490518,0.6205761463318564,25.012527576058062,-0.0013949752344475878,0.002547155366937834,0.0029041274710388167,0.26365035006849186,2.22269572483858
6,12,0.6345656976087184,0.6,5.976575725661988,0.591544021460005,25.013710664100984,-0.012863989191291544,0.020081492793769584,0.0238484500699707,0.255044519540839,2.477740244379419
6,13,0.6078798974933839,0.6,5.932966430193398,0.6821455017624423,25.01507495510451,0.05294020525771566,-0.015101996439781412,0.05505211739067113,0.2749189813074491,2.7526592256868683
6,14,0.6193184609433544,0.6,5.970688963963416,0.631953812020776,25.016338862728553,0.006458944556560139,0.011045544214720489,0.012795390255246735,0.28546248018075027,3.0381217058676184
6,15,0.6017566559489337,0.6,5.948952962372026,0.6600231840817424,25.017658909096717,0.0005320170034947011,-0.013301944123244955,0.013312578996946402,0.2922550799031432,3.3303767857707616
6,16,0.5836976211219761,0.6,5.888147810024507,0.7795461269846784,25.019218001350687,0.03301240489333362,-0.0027355577790782967,0.03312555136452936,0.31409757920232334,3.644474364973085
6,17,0.6062483796551701,0.6,5.957494504118559,0.6673750335070552,25.0205527514177,-0.005010860458809507,-0.004582291537024826,0.006790148618988392,0.31777749460351296,3.9622518595765976
6,18,0.6052463497636992,0.6,5.925507764066533,0.7096211998193379,25.02197199381734,-0.001646253574492263,-0.008125160461856011,0.008290258341115598,0.3106165055610115,4.272868365137609
6,19,0.6292506231466347,0.6,5.899190261334843,0.7149817985293717,25.023401957414396,0.045204432084213736,0.023151706340059447,0.05078820912881887,0.3178043354955541,4.590672700633163
6,20,0.6006633705455319,0.6,5.893265947428171,0.7597106421481711,25.024921378698693,-0.013877885448176527,-0.009601055659442864,0.01687530664279703,0.3234221679236752,4.9140948685568375
6,21,0.5938174909745775,0.6,5.923363883830771,0.7115263447773559,25.026344431388246,-0.010065341427570715,-0.0016615313560795224,0.010201557944785038,0.3192449584914429,5.2333398270482805
6,22,0.5983202989636368,0.6,5.919102412897784,0.705452982843416,25.027755337353934,-0.013040991288612561,-0.008348071635345082,0.015484112949036564,0.3095063461354758,5.542846173183756
6,23,0.6091035780200798,0.6,5.8746337217504685,0.7859589414739995,25.029327255236883,0.02297287247495348,-0.01736241804300151,0.028795944680638966,0.32690953544202295,5.869755708625779
6,24,0.5988627916765203,0.6,5.934887710157233,0.6870148082648371,25.03070128485341,0.0011118999933004375,-0.009804592455621559,0.009867439121470813,0.3264507408067453,6.196206449432524
6,25,0.5726622941508296,0.6,5.952823910775813,0.6980465277226728,25.032097377908855,0.0013661405799802566,-0.002863182808100257,0.003172405377134149,0.3241279943108689,6.520334443743393
6,26,0.5782598131454729,0.6,5.939395090527221,0.7102559802477579,25.03351788986935,0.011156501502738583,0.012741550275151841,0.0169356024160592,0.3238680163588465,6.84420246010224
6,27,0.6050258814115371,0.6,5.901880987528574,0.7454449565026754,25.035008779782356,-0.001874016749506371,-0.009205381630914403,0.009394199792861909,0.3108342343290727,7.155036694431312
6,28,0.6205818661223885,0.6,5.893439832209452,0.7276507914865651,25.036464081365327,-0.00923995552293639,-0.006861018211613559,0.011508707528038743,0.2995480698719398,7.454584764303252
6,29,0.6289833788867911,0.6,5.926723901878816,0.6794106749032441,25.037822902715135,-0.014937678831136506,-0.006884461387207981,0.01644779795152352,0.2896711566015899,7.744255920904842
6,30,0.5625563207892437,0.6,5.957208760404078,0.6849155353811256,25.039192733785896,0.03292995543960808,-0.0032577632458502836,0.03309070846356401,0.29460403555032877,8.038859956455171
6,31,0.632302435464479,0.6,5.939610714791603,0.6719263934355167,25.040536586572767,0.0034895227101874524,-0.001987198463087681,0.0040156850569500625,0.2896194747057009,8.328479431160872
6,32,0.6393867351115214,0.6,5.841966634388457,0.8057591027880744,25.04214810477834,0.01762624688726745,-0.0008332628524667476,0.017645931721283703,0.3124105960124528,8.640890027173326
6,33,0.6417882694859641,0.6,5.903497754812535,0.6997256660160858,25.043547556110372,-0.007812850095769295,-0.025752026267692657,0.026911103349935225,0.31848008090338215,8.959370108076708
6,34,0.6203144024885787,0.6,5.920876855745386,0.7062092026386898,25.04495997451565,-0.0023715291797356246,-0.0076630965194708104,0.008021670581435214,0.3142710167693296,9.273641124846037
6,35,0.5528337684442441,0.6,5.98108555684541,0.6510506460811805,25.04626207580781,-0.009027013502920591,-0.0016028622042862791,0.009168213567966235,0.31444807958760174,9.588089204433638
6,36,0.6292488338650661,0.6,5.923352749270784,0.6808942247080441,25.047623864257226,0.015875958276117985,0.0034900356209017504,0.016255042289093014,0.3190268042737498,9.907116008707387
6,37,0.6232743373867417,0.6,5.92744516052869,0.6836799875671125,25.04899122423236,0.01464868865526535,0.008893759081552545,0.017137182671594482,0.3228660262304663,10.229982034937853
6,38,0.517780081262008,0.6,5.95433949913701,0.7554828585437823,25.050502189949448,-0.0025370441320409264,0.015184829257797213,0.015395312030497385,0.32796014005187574,10.557942174989728
6,39,0.5829508788923845,0.6,5.909601374985404,0.7470768526129633,25.051996343654675,-0.004789321598839265,-0.0077714750954831074,0.009128714396716685,0.33351877130054236,10.891460946290271
6,40,0.5818634697057284,0.6,5.88353839648786,0.7940578273751845,25.053584459309427,0.011573916551102464,0.007429509766083332,0.013753296321108301,0.34862635673879827,11.24008730302907
6,41,0.6613313429284225,0.6,5.819845795680982,0.8211530184528292,25.055226765346333,0.022679218631694732,0.0009143683319114727,0.022697643648418926,0.3582036101984974,11.598290913227567
6,42,0.5761563233653687,0.6,5.886297450655309,0.8044117246176085,25.05683558879557,-0.0026411696087670668,-0.0019353711101102694,0.0032743607370178743,0.35848582734824175,11.956776740575808
6,43,0.6416839189164393,0.6,5.7949889467372335,0.8712376550546497,25.058578064105678,0.02056495112292355,-0.015064631659717182,0.02549235849683563,0.3704095651573892,12.327186305733198
6,44,0.5757531650352344,0.6,5.897495814552259,0.7584900702776145,25.060095044246232,-0.007888059267201326,-0.006110659144951346,0.009978057636066162,0.36933896112726705,12.696525266860466
6,45,0.5832809554798944,0.6,5.8556448120728914,0.8417756655364839,25.061778595577305,-0.01735317272309378,-0.002387763168452323,0.017516678238357394,0.3613165668131143,13.05784183367358
6,46,0.5620293148308141,0.6,5.895917464349673,0.8233630928021356,25.06342532176291,-0.007105882908853095,-0.0016562878329314595,0.007296359455224729,0.3508937804488097,13.408735614122389
6,47,0.6300796468768767,0.6,5.860812542747654,0.7961145751698582,25.06501755091325,-0.014455833359697072,-0.0029623165439820725,0.014756233849803296,0.34775333950931414,13.756488953631703
6,48,0.6483849400813273,0.6,5.846862009955909,0.7964390626776118,25.066610429038604,-0.011793177161528574,0.005373967468768181,0.01295988248089379,0.33183743963117485,14.088326393262877
6,49,0.6149764684136351,0.6,5.913687157750133,0.7313253466742385,25.068073079731953,0.005728589788593321,-0.010170162016248128,0.011672571970337636,0.33748048015970505,14.425806873422582
6,50,0.6547096075784102,0.6,5.859050115492983,0.7595088442603312,25.069592097420472,-0.008459801921098416,-0.008756818272205504,0.012175800376018517,0.32120900557678417,14.747015878999367
6,51,0.6049342822463986,0.6,5.898474930874379,0.7510213057835396,25.071094140032038,0.0055793124366209194,0.004182033486531168,0.006972670316880105,0.33122791810380003,15.078243797103166
6,52,0.5804598143338948,0.6,5.895253627804729,0.7567455529125261,25.072607631137863,-0.032076974242370396,-0.01859523605626927,0.03707715038314124,0.31724784578874454,15.39549164289191
6,53,0.579390551503108,0.6,5.907937429280994,0.7459028704374778,25.07409943687874,0.01980802186702771,0.009828412198173899,0.022112336299492674,0.3256661295491096,15.72115777244102
6,54,0.5890420511262049,0.6,5.90244423533874,0.7375621945427279,25.075574561267825,-0.020563190966653173,0.007337234878550057,0.021832998841067576,0.32142988624396535,16.042587658684983
6,55,0.6050972274952038,0.6,5.910112576925709,0.730199934299405,25.077034961136423,0.024051787498715407,0.013968490876314008,0.027813795484346083,0.32424640951287903,16.36683406819786
6,56,0.5936514749445856,0.6,5.934938348202038,0.7082509344319967,25.078451463005287,-4.2825585511712056e-05,-0.004935318504950362,0.0049355043081816775,0.32349349587548704,16.690327564073346
6,57,0.5651669280890517,0.6,5.956058022479589,0.7126822052420105,25.07987682741577,0.0015782720512924,0.004282922606938115,0.004564468065931922,0.3271079181155733,17.01743548218892
6,58,0.5773197001930537,0.6,5.927263829664493,0.7395229677731114,25.081355873351317,0.010347258242231032,0.006605708080415788,0.012276038952980252,0.3287425336616591,17.34617801585058
6,59,0.5905326414559204,0.6,5.859734659986297,0.8221722509933218,25.083000217853304,-0.0008511422030147448,-0.00027848380506712505,0.0008955424498243831,0.3436088988335762,17.689786914684156
6,60,0.5715459083240965,0.6,5.9193703796886465,0.7557323146584917,25.08451168248262,-0.009921461928495157,-0.008531286248616413,0.013085039237786426,0.3378374536161773,18.027624368300334
6,61,0.6357123237082704,0.6,5.8413143958731695,0.7885863062470755,25.086088855095113,-0.03521711677282772,-0.003161415757497162,0.035358731077100816,0.3257523561803202,18.353376724480654
6,62,0.5936081442788771,0.6,5.93267804873732,0.6934322554385858,25.08747571960599,-0.009134637620525177,0.01817826413261076,0.020344308573487492,0.3257542749646824,18.679130999445338
6,63,0.639362879936231,0.6,5.901114985006388,0.7202493235675865,25.088916218253125,0.015225764329976028,0.002310186822172762,0.015400028005991127,0.32583821798458046,19.004969217429917
6,64,0.601093361016907,0.6,5.9152537638799165,0.7261538768681728,25.090368526006863,-0.017361343890149587,-0.015230001361792946,0.02309478735888792,0.3182590802564276,19.323228297686345
6,65,0.6102109131424021,0.6,5.913903666064332,0.726896390623424,25.09182231878811,-0.008953882482136067,0.01010693715987805,0.013502673448529626,0.3240568026046052,19.64728510029095
6,66,0.624431962032604,0.6,5.912450594210508,0.7017230308741103,25.09322576484986,-0.022896134408632973,-0.005680857202871936,0.023590360519025747,0.32021884694397146,19.96750394723492
6,67,0.602764785621466,0.6,5.921461173849569,0.7192546483769588,25.094664274146613,-0.0011200620033856494,-0.010489003714627146,0.010548636775284772,0.3190393967967208,20.286543344031642
6,68,0.6156087909429372,0.6,5.881467095324217,0.7633467297672131,25.096190967606148,0.022623496896631456,-0.002013845432827442,0.022712951927462293,0.3322075057988812,20.618750849830523
6,69,0.5839625615724667,0.6,5.866405633453292,0.8281769204763328,25.0978473214471,0.03335121512206883,0.0021440601326098243,0.03342006199830813,0.35009200253882583,20.96884285236935
6,70,0.596445601442854,0.6,5.853190412986885,0.8252976945771726,25.099497916836256,-0.005552680815235165,-0.003313086360295018,0.006465972894054966,0.3323096741043823,21.301152526473732
6,71,0.6400909023284836,0.6,5.876897008280776,0.7606339819711073,25.101019184800197,0.0008985726485583306,-0.005847709364174684,0.005916344953820173,0.34107857412556747,21.6422311005993
6,72,0.5925546791196531,0.6,5.871761972990906,0.8103299891249921,25.102639844778448,-0.005439681225447296,-0.013293365693342671,0.01436327620327005,0.32588750879433387,21.968118609393635
6,73,0.6569837914597008,0.6,5.89546422754969,0.7059439190595678,25.10405173261657,-0.0021835092005637684,-0.0032328863625550033,0.0039011878527111135,0.32388829009570375,22.292006899489337
6,74,0.6330300968365244,0.6,5.916178910651784,0.7245389157074587,25.10550081044798,0.01202024618857047,0.016683110596343254,0.020562404956708333,0.3298617159818162,22.621868615471154
6,75,0.5776872955878313,0.6,5.938412235409891,0.6963030606292362,25.10689341656924,-0.023606580477198765,0.007315925050221388,0.02471423478821302,0.32932471315907536,22.95119332863023
6,76,0.6190720905555135,0.6,5.8755477044498505,0.7916928216899155,25.108476802212618,0.008607628263238607,-0.0055396474079057794,0.010236159324767338,0.3388056232928901,23.28999895192312
6,77,0.5795412070088481,0.6,5.880334809098712,0.8105045776708022,25.11009781136796,-0.01670333213489467,0.022948811662553914,0.028383961336148546,0.3108600738135278,23.60085902573665
6,78,0.6544499425152824,0.6,5.88711775695857,0.7186086525630484,25.11153502867309,0.0038153953387429157,-0.0022139049834706405,0.004411192227361816,0.31404056434840305,23.914899590085053
6,79,0.6108643467057904,0.6,5.926410697881677,0.6956887398856968,25.11292640615286,0.0012190330244307773,-0.011557924789632029,0.011622033684232869,0.3170025187134978,24.23190210879855
6,80,0.5709945239828422,0.6,5.9322759197423185,0.7311396875892066,25.114388685528038,0.00974052655178336,-0.020492319132446663,0.022689490980011787,0.32547280573206927,24.55737491453062
6,81,0.6143205498890946,0.6,5.887075578540105,0.747080144898952,25.115882845817836,-0.011893481527570944,0.013637425928273423,0.018095145448318882,0.3163587238771811,24.8737336384078
6,82,0.6091256592860933,0.6,5.885248268276908,0.7656612929541129,25.117414168403744,-0.003926926963462037,0.01178031235143372,0.012417588915474172,0.3244642314674788,25.19819786987528
6,83,0.6052280057865992,0.6,5.91739143649914,0.7322914571422877,25.11887875131803,0.0024951078253147474,0.01663038957754906,0.016816522249293975,0.32910429035767946,25.52730216023296
6,84,0.5402747709355814,0.6,5.950426828715002,0.7329292375141584,25.120344609793058,-0.002973096345371663,0.00877505062836434,0.009265031862288425,0.3236786354778736,25.850980795710832
6,85,0.6367250064913759,0.6,5.919007503813597,0.6831221816750397,25.121710854156408,0.011168292663118017,0.007845553343209962,0.013648570191423303,0.3259317749410992,26.176912570651933
6,86,0.5796532047203429,0.6,5.869723912038481,0.8074012522928985,25.123325656660995,0.0180444321815919,0.006126807853910978,0.019056214399371527,0.3408029175856677,26.5177154882376
6,87,0.6555362119411274,0.6,5.859948373147994,0.7562230832694137,25.124838102827535,-0.0009095614705186259,0.021106085335880192,0.021125674906949336,0.33689051287894106,26.85460600111654
6,88,0.5876540819721244,0.6,5.844939985030745,0.8690132614943626,25.126576129350525,0.004625490931629275,-0.003350913003517865,0.005711723410296561,0.35333231695969963,27.20793831807624
6,89,0.5962783592078266,0.6,5.824946533692092,0.8600797160194082,25.128296288782565,0.03344357115095996,-0.005657813285456108,0.03391877507373173,0.3722663699703383,27.580204688046578
6,90,0.62416796656193,0.6,5.808444296375378,0.8857884367022443,25.13006786565597,0.02360702392621685,-0.027162803092175745,0.03598762913109569,0.3864850766326174,27.966689764679195
6,91,0.5884752237705567,0.6,5.845387863131546,0.8480137924774525,25.131763893240926,0.0021469846817061483,-0.0039806148096566425,0.004522702453880714,0.38834797686792766,28.35503774154712
6,92,0.6167181731542151,0.6,5.842673774408793,0.824812770710713,25.133413518782348,0.007302821691150923,0.002890058923953664,0.007853893635431323,0.38762640945723464,28.742664151004355
6,93,0.5909844189361123,0.6,5.857270791522988,0.8568750938569848,25.135127268970063,0.0037764609965585862,0.005373801933590323,0.006568059445527832,0.37932734461219886,29.121991495616555
6,94,0.5908598860116032,0.6,5.8555030403219845,0.8174155590060566,25.136762100088074,-0.019871822063965032,-0.0017012230475116602,0.019944509820982625,0.3673033698388401,29.489294865455395
6,95,0.6357334380279278,0.6,5.846580486160863,0.7947657021552911,25.138351631492384,0.004392639309396028,-0.005481374677891694,0.007024297008376247,0.36173092863756706,29.851025794092962
6,96,0.6086075064984372,0.6,5.822379210039361,0.8763076155965837,25.140104246723578,0.009052161479028983,0.009696237292240466,0.013264940447278717,0.3688153892157225,30.219841183308684
6,97,0.6053734718920828,0.6,5.860451824880055,0.8206957561356203,25.14174563823585,-0.016762797429043796,-0.016645732509676436,0.023623543096471713,0.35074735152802927,30.570588534836713
6,98,0.5821096459172748,0.6,5.903259928226295,0.7575331844562749,25.143260704604764,-0.014118938965394592,0.01084747576637705,0.017804835523269377,0.3434364836106424,30.914025018447354
6,99,0.5709916658597833,0.6,5.858293610269188,0.8336740719630157,25.14492805274869,0.016992785000475075,0.011899780497958272,0.020745108290195997,0.35844599801756405,31.27247101646492
7,0,0.6138322677893379,0.6,6.112489578777448,0.38289593625516394,25.00076579187251,0.04547699300063547,-0.015514411382363107,0.048050534366654504,0.0472678170525735,0.0472678170525735
7,1,0.5976714103001666,0.6,6.030272557241463,0.529464503457119,25.001824720879423,0.05267441187614766,0.007977949422628427,0.05327514752197372,0.1006456251302986,0.14791344218287208
7,2,0.6576886657774451,0.6,6.013989316924486,0.5275668464533997,25.00287985457233,0.05341584497631647,0.007085199408280056,0.05388369461338899,0.1426955415294582,0.2906089837123303
7,3,0.6626252065933668,0.6,6.001567712267376,0.5382793736933355,25.003956413319717,0.025986261162508878,0.007908615021587522,0.027163062433492233,0.1690395249393387,0.45964850865166895
7,4,0.618000109428579,0.6,5.982679547834913,0.606355208438564,25.005169123736593,0.041823199300843786,-0.017722311199804223,0.04542312532202959,0.20059775019435658,0.6602462588460255
7,5,0.627050748447622,0.6,6.051698535283053,0.46738426125158833,25.006103892259095,0.007737274042622645,-0.004637044471339729,0.009020398607590715,0.20561391780435634,0.8658601766503818
7,6,0.6176260766162618,0.6,5.914555712062434,0.7247843719793563,25.007553461003052,0.0337419975385933,-0.004347906467499012,0.03402097424449447,0.2391137722415424,1.1049739488919244
7,7,0.6455185571433648,0.6,5.9107427171233375,0.6782801057044404,25.00891002121446,0.02171053677195361,0.00363084665238542,0.022012052479028127,0.2578502524103273,1.3628242013022516
7,8,0.5852713349399415,0.6,5.957928132986802,0.6631904989536912,25.010236402212367,0.03434659761512591,0.0043955020603130765,0.03462671232008013,0.27038086373606546,1.633205065038317
7,9,0.569867826535602,0.6,5.974061433759529,0.6608779076751482,25.011558158027718,0.037131207102807054,-0.004359241229520886,0.037386221058147935,0.2820309438607206,1.9152360088990377
7,10,0.5731962864954313,0.6,5.979639085886386,0.6231037721506044,25.01280436557202,-0.0017208489144097546,-0.003684154413875956,0.004066240859996726,0.2834017800901256,2.1986377889891635
7,11,0.6474374686721731,0.6,5.918733538160133,0.6740043516301628,25.01415237427528,0.004133778189035176,-0.010237014524008546,0.01104013534703741,0.2933739667190576,2.492011755708221
7,12,0.6034046856686685,0.6,5.954526366578711,0.6627442931925823,25.015477862861665,-0.0044685343302355435,-0.00479297397554433,0.006552892383576801,0.29843722736897277,2.790448983077194
7,13,0.6098547859746534,0.6,6.003360965662158,0.5829248549207892,25.016643712571508,0.003922032516431217,-0.005070599561429888,0.006410407083198131,0.29713842735187573,3.0875874104290695
7,14,0.599150686043046,0.6,5.9194318967274056,0.7135370935199038,25.018070786758546,0.00472380637019095,0.004056522298046535,0.0062265335281844695,0.31038937604274053,3.3979767864718102
7,15,0.6103382919797422,0.6,5.770875011279084,0.962805880490791,25.019996398519528,0.04558680838021277,-0.006475380256858187,0.04604440951695597,0.34734911008225705,3.7453258965540672
7,16,0.6222271730497019,0.6,5.8468096603938555,0.8118072862818543,25.02162001309209,0.009556253103209188,0.017564786430302216,0.019996092011058664,0.3610532398090375,4.106379136363104
7,17,0.6129279726702526,0.6,5.829933637889348,0.8510912797473034,25.023322195651584,0.0018197674782278773,0.005956119532945486,0.006227914062151998,0.37342832017368716,4.479807456536792
7,18,0.6080809634513152,0.6,5.844745466070155,0.8366043988170595,25.024995404449218,-0.019221710770203113,0.002449852070881173,0.019377201554985773,0.3643324686568637,4.844139925193655
7,19,0.6085605727433628,0.6,5.769936667540223,0.9773522161105953,25.02695010888144,0.037307271998041514,0.004318854841446306,0.037556424897443805,0.39402269920630384,5.238162624399959
7,20,0.5940879927995701,0.6,5.850001977471128,0.8351111189042015,25.02862033111925,-0.0077297447835952115,0.00205656674019517,0.007998651209822464,0.3864835365604615,5.62464616096042
7,21,0.5458172820724843,0.6,5.881318905907046,0.8430870297746266,25.0303065051788,-0.008108095629684117,-0.0004961065867999778,0.008123258981810749,0.3830709045159865,6.007717065476407
7,22,0.6020835101868734,0.6,5.789839010092524,0.8980967130329899,25.032102698604866,0.010693884155668767,0.006801457660218328,0.01267355453843183,0.3981684108037938,6.405885476280201
7,23,0.6198059290978051,0.6,5.771984218272617,0.9433277368995564,25.033989354078667,0.014878591915563183,-0.0192070559892993,0.024295750598940964,0.4110038168131958,6.816889293093396
7,24,0.5793701916943175,0.6,5.79461074380786,0.9363889297527425,25.035862131938174,-0.0031817989268571253,0.010614349597626391,0.011080986499025287,0.3996224868057208,7.216511779899117
7,25,0.6957807262302431,0.6,5.7535961577621535,0.8693363824646844,25.037600804703104,0.009438964944029748,-0.011247027147637333,0.014682972412775067,0.3973098978305518,7.6138216777296694
7,26,0.5980987873831307,0.6,5.823857549813679,0.8734864342848399,25.039347777571674,-0.008233090456450346,0.018904037030816556,0.020619078411184565,0.40239976204264966,8.01622143977232
7,27,0.613080569484055,0.6,5.813257660952542,0.8609238790707153,25.041069625329815,0.002782899450697866,0.005263920801511129,0.005954275065637802,0.40105667734259254,8.417278117114913
7,28,0.5999885033906457,0.6,5.776453537721199,0.9489038524479763,25.04296743303471,0.018141712287477522,-0.006374392034304347,0.01922900409612041,0.41173025130158075,8.829008368416494
7,29,0.582330162422244,0.6,5.804443072401821,0.9477624271497489,25.04486295788901,-0.0009998984100913887,-0.008656336415860263,0.008713894478076481,0.421274811130401,9.250283179546894
7,30,0.6271987655757468,0.6,5.734900360719303,0.981072342108394,25.046825102573226,0.010014117431838693,-0.015257775118655469,0.018250541074448106,0.4284721829874348,9.678755362534329
7,31,0.6611778679095371,0.6,5.74849677130281,0.9326201317881274,25.048690342836803,-0.004698050525824075,-0.01282503414295042,0.0136584471852052,0.43240621465232143,10.11116157718665
7,32,0.5805823251090834,0.6,5.796715590961365,0.9466877285209345,25.050583718293844,0.002851651377975696,-0.007308067631738654,0.00784472868183323,0.43536700940920625,10.546528586595857
7,33,0.6002608015257558,0.6,5.756205154024908,0.9862326537912254,25.052556183601425,-0.034631349917196026,-0.0017837110428033612,0.034677255112991454,0.4207283354119635,10.96725692200782
7,34,0.6003356650921882,0.6,5.797540476984504,0.9134577332972632,25.05438309906802,0.0008906079170005465,0.004470541523241566,0.00455839050245271,0.41223055689985266,11.379487478907674
7,35,0.6135187438558153,0.6,5.77763848590087,0.9323039925836223,25.056247707053185,0.007982099755695853,-0.0007925772549673786,0.008021352455476036,0.42427904635458286,11.803766525262256
7,36,0.62674767501632,0.6,5.764580112433233,0.9209813474495454,25.058089669748085,-0.005307171424621379,-0.0021420688476595025,0.005723157125086732,0.4120301077260413,12.215796632988297
7,37,0.5854203024184785,0.6,5.768502708054987,0.9731311892707657,25.060035932126628,0.04186124031914499,-0.0017862059870045691,0.04189933141334383,0.4278846293410123,12.64368126232931
7,38,0.5987721741009877,0.6,5.758367339274244,0.9665918073816182,25.06196911574139,0.009069266714280993,-0.005567897443633333,0.010642043068771324,0.43539246480990523,13.079073727139214
7,39,0.6021119186316846,0.6,5.785708519546718,0.9430938392834817,25.06385530341996,-0.0015938237353501253,-0.014672493326505078,0.014758805321424274,0.4322981753139974,13.511371902453211
7,40,0.6271739708417197,0.6,5.710939286393274,1.0272290275359854,25.06590976147503,0.006110561723995073,-0.007469163370632707,0.009650252123128958,0.44502897973961103,13.956400882192822
7,41,0.5845198037975243,0.6,5.7815599905189705,0.9826652678511109,25.067875092010734,-0.014057370944852089,0.025544494187513776,0.029157003638527343,0.44247766515229947,14.398878547345122
7,42,0.5865535493345403,0.6,5.797946253006609,0.9334053894959344,25.069741902789726,0.010589367500866486,0.004006403668095266,0.011321924501609015,0.44896720909367627,14.847845756438797
7,43,0.6054988119019244,0.6,5.74157697147496,1.0206978682557124,25.07178329852624,0.0014323239734133544,-0.007381575979519863,0.007519256339974003,0.4368852974196076,15.284731053858405
7,44,0.5577646915442218,0.6,5.790680317303387,0.9786273855862485,25.073740553297412,0.009306217271550628,-0.0023550331433385293,0.00959957608499095,0.42607908282958157,15.710810136687986
